DateTime, Temp, Humidity, Pressure, Yaw, Pitch, Roll, MagX, MagY, MagZ, AccX, AccY, AccZ, GyroX, GyroY, GyroZ, State
11/11/2017 21:33:49.551174,32.822,33.787,0.000,87.318354,356.829263,357.429580,2.144357,-21.300653,20.535395,0.093342,-0.074056,0.893149,0.110462,0.068093,-0.011588,0
11/11/2017 21:33:49.837471,32.893,33.246,1033.437,86.468931,357.873296,357.322215,4.610496,-43.647270,41.606987,0.067400,-0.064407,0.912888,0.023010,-0.016374,-0.052385,0
11/11/2017 21:33:50.002190,32.911,34.893,1033.429,86.557212,357.192323,357.029467,5.189276,-52.622295,50.229134,0.080250,-0.075021,0.930922,-0.030572,-0.033022,0.015796,0
11/11/2017 21:33:50.163600,32.911,34.711,1033.433,86.693105,356.968196,356.214863,5.806073,-56.074501,54.093269,0.060611,-0.039802,0.923124,-0.056731,-0.004973,-0.009642,0
11/11/2017 21:33:50.328808,32.911,34.554,1033.437,86.809498,357.191664,355.941729,6.378228,-57.597946,55.230133,0.053823,-0.047039,0.935796,-0.094501,0.019137,0.043946,0
11/11/2017 21:33:50.497592,32.911,34.880,1033.429,87.220279,357.346356,356.228043,5.996507,-58.303921,55.604992,0.066430,-0.038837,0.924830,0.047798,-0.012074,0.028305,0
11/11/2017 21:33:50.659070,32.805,30.446,1033.435,87.616956,357.721359,356.703595,5.589205,-58.690281,56.056709,0.058429,-0.033530,0.912645,0.036709,-0.003275,0.023367,0
11/11/2017 21:33:50.823980,32.911,34.372,1033.435,87.717415,357.636574,357.021814,5.614842,-58.677753,56.471653,0.080007,-0.053311,0.940913,0.106213,0.038610,-0.000834,0
11/11/2017 21:33:50.992486,32.965,34.883,1033.428,87.910484,357.244056,357.151272,5.525994,-58.788002,56.688950,0.074188,-0.043179,0.915813,0.018643,-0.035060,-0.023163,0
11/11/2017 21:33:51.161087,32.858,34.657,1033.422,87.902199,357.115785,356.630367,5.764669,-58.542156,56.701454,0.059157,-0.034495,0.944082,-0.013505,0.000243,-0.031363,0
11/11/2017 21:33:51.322533,32.911,34.611,1033.428,87.856191,357.059474,356.591542,5.906130,-58.530678,56.400238,0.063763,-0.053311,0.879746,0.016757,-0.004052,-0.024565,0
11/11/2017 21:33:51.484007,32.698,35.093,1033.425,87.871217,356.950750,356.739104,5.737519,-58.455879,56.640656,0.071764,-0.030394,0.932384,0.017227,-0.003465,0.005178,0
11/11/2017 21:33:51.649149,32.734,34.940,1033.412,87.999768,356.924658,356.850200,5.777383,-58.487713,56.458778,0.067642,-0.037149,0.947250,0.025738,0.016477,0.012989,0
11/11/2017 21:33:51.810558,32.805,35.747,1033.423,88.032280,356.841667,357.063316,6.038429,-58.594753,56.589928,0.075401,-0.038837,0.930678,-0.007278,0.015137,-0.009357,0
11/11/2017 21:33:51.975741,32.876,34.551,1033.427,87.904644,356.836049,357.080600,6.114001,-58.299736,56.597382,0.062793,-0.039802,0.937258,0.028922,0.003824,-0.016891,0
11/11/2017 21:33:52.144240,32.769,34.601,1033.425,87.792103,356.787482,357.291041,6.026740,-58.250355,57.151649,0.061824,-0.028947,0.935309,-0.008738,0.009156,-0.003336,0
11/11/2017 21:33:52.305601,32.947,34.664,1033.446,87.814315,356.684064,357.146770,5.744574,-58.259129,56.996906,0.066673,-0.032565,0.946031,0.006257,0.009657,0.007319,0
11/11/2017 21:33:52.466903,32.893,34.202,1033.453,88.230861,357.214334,357.543711,5.598228,-58.282715,56.722374,0.052611,-0.035219,0.939208,0.015040,0.044806,0.022292,0
11/11/2017 21:33:52.632165,32.787,34.946,1033.456,88.327897,357.444720,357.767957,5.400448,-58.503304,57.071812,0.048732,-0.028465,0.952855,-0.001624,-0.014680,-0.014028,1
11/11/2017 21:33:52.790412,32.840,34.538,1033.463,88.521000,356.918661,357.349021,5.537089,-58.405235,56.991455,0.062551,-0.041491,0.930191,0.005031,-0.008898,0.034973,1
11/11/2017 21:33:52.959120,32.947,35.029,1033.475,88.563641,357.006985,358.190246,5.220762,-58.130791,56.792274,0.057460,-0.011579,0.934334,0.041865,0.008571,-0.023937,1
11/11/2017 21:33:53.120745,32.876,35.378,1033.470,88.527974,356.938111,358.010337,5.022412,-57.914322,56.843204,0.058429,-0.027259,0.954804,-0.024248,-0.002399,-0.014642,1
11/11/2017 21:33:53.281911,32.965,34.704,1033.468,88.529552,356.834432,358.083041,5.059948,-57.760674,56.983860,0.055278,-0.018574,0.924342,-0.016238,-0.022660,-0.086692,1
11/11/2017 21:33:53.447265,32.840,35.225,1033.464,88.543109,356.587869,358.122511,5.116930,-57.776733,56.372227,0.037579,-0.012544,0.922149,-0.007449,-0.001784,0.041163,1
11/11/2017 21:33:53.615975,33.071,35.099,1033.460,88.489868,356.322757,357.548886,5.191511,-57.924744,56.665901,0.018426,-0.001689,0.949443,-0.050085,-0.033944,-0.001573,1
11/11/2017 21:33:53.776957,32.965,35.358,1033.447,87.729115,356.738342,357.240980,5.420660,-58.371017,56.381527,0.064248,-0.013267,0.951880,-0.005320,0.103006,-0.115172,1
11/11/2017 21:33:53.941687,32.929,35.391,1033.448,86.298662,357.758602,357.926045,5.381820,-58.424641,56.203552,0.112252,0.031806,0.931897,-0.085343,0.052915,-0.134109,1
11/11/2017 21:33:54.110072,32.876,34.694,1033.430,85.269714,356.928107,358.149319,5.386015,-58.006042,56.179741,0.123163,0.092018,0.871216,0.085693,-0.139234,-0.085752,1
11/11/2017 21:33:54.271325,32.876,35.371,1033.427,85.896329,356.536732,359.274043,6.010023,-57.968365,55.589962,0.080734,0.007769,0.975275,0.249405,0.087702,0.135992,1
11/11/2017 21:33:54.437054,32.858,35.451,1033.427,89.133511,355.159269,357.645740,5.879363,-58.149902,55.498802,0.106191,-0.133157,0.981124,0.286973,-0.121214,0.195246,1
11/11/2017 21:33:54.603007,32.858,35.039,1033.421,91.056995,354.510765,357.388244,5.175600,-58.095078,56.373955,-0.021968,-0.084429,0.950418,-0.025555,-0.043981,0.080190,1
11/11/2017 21:33:54.773729,32.787,35.262,1033.423,90.247672,355.463650,357.098087,5.012742,-58.359760,56.609924,0.001455,0.027678,0.885594,-0.243633,0.146915,-0.065501,1
11/11/2017 21:33:54.942548,32.858,35.325,1033.433,87.866374,356.283317,356.345489,4.529938,-58.361881,56.047295,0.038791,0.080122,0.952611,-0.013032,0.080025,-0.335198,1
11/11/2017 21:33:55.103681,32.734,35.269,1033.439,85.675530,356.148333,355.469158,4.709955,-58.469318,55.703358,0.125102,-0.206731,1.306459,-0.130318,0.236406,-0.339169,1
11/11/2017 21:33:55.264744,32.769,35.205,1033.442,83.552563,356.536172,355.808065,5.418612,-57.717144,56.263477,0.139164,-0.073815,0.918006,0.048971,-0.036650,-0.323592,1
11/11/2017 21:33:55.429724,32.876,35.023,1033.456,83.023101,356.761846,356.456537,5.891011,-56.747787,56.938702,0.039519,0.105372,0.730847,-0.056056,0.087388,-0.026563,1
11/11/2017 21:33:55.591071,32.822,33.744,1033.462,83.651799,358.554019,356.843655,5.954684,-56.430714,57.327179,0.066430,0.028892,1.039367,0.127204,0.246213,0.260239,1
11/11/2017 21:33:55.759325,32.769,34.730,1033.472,86.587804,359.859429,357.772941,5.469075,-56.776936,57.297302,-0.003456,-0.128091,1.104434,0.168743,-0.076934,0.149061,1
11/11/2017 21:33:55.924176,32.716,35.225,1033.476,88.300658,357.075970,357.921651,4.974129,-57.154400,56.901524,0.064248,-0.037149,0.809074,-0.102787,-0.334109,0.171663,1
11/11/2017 21:33:56.092445,32.769,35.112,1033.470,87.884966,355.944753,357.834850,5.351622,-57.819176,56.133087,0.003879,0.048801,0.831006,-0.209413,-0.050788,-0.128629,1
11/11/2017 21:33:56.260778,32.840,35.345,1033.468,85.866044,356.437720,358.843953,5.874077,-58.116707,55.503468,0.034427,0.062640,1.034249,0.330897,0.065887,-0.229727,1
11/11/2017 21:33:56.429603,32.769,35.511,1033.464,82.778471,357.514695,0.336354,6.403103,-58.324093,55.064255,0.097463,-0.092872,0.963090,0.395649,0.071080,-0.391301,1
11/11/2017 21:33:56.590909,32.716,34.000,1033.464,80.099643,357.578349,1.875393,6.706204,-57.716980,55.356876,0.063521,0.023794,0.791527,0.198645,-0.045596,-0.280429,1
11/11/2017 21:33:56.756136,32.858,35.478,1033.458,80.949517,357.167827,3.019814,7.406481,-56.605335,56.675003,0.066430,0.078179,0.829788,-0.222241,-0.083164,0.239418,1
11/11/2017 21:33:56.924236,32.805,35.195,1033.450,84.666991,359.343902,3.510482,7.980483,-55.973164,56.666069,0.043640,0.041032,1.071779,-0.459563,0.258310,0.489262,1
11/11/2017 21:33:57.092570,32.787,35.146,1033.452,86.330354,359.865927,5.221496,7.640676,-56.417210,56.169548,0.037337,-0.022916,0.903872,0.161077,-0.062089,0.334407,1
11/11/2017 21:33:57.260884,32.734,35.189,1033.438,87.157319,358.076963,5.992279,7.362050,-56.236931,56.124477,0.019881,0.020880,0.708427,0.168722,-0.144682,-0.120116,1
11/11/2017 21:33:57.422133,32.680,35.448,1033.444,85.107278,357.348703,5.167873,7.326741,-55.663509,55.810383,0.017214,0.026950,0.900704,-0.221927,-0.188970,-0.231905,1
11/11/2017 21:33:57.583350,32.698,35.684,1033.450,82.470586,357.289553,5.807197,7.830604,-54.928265,55.368397,0.128739,-0.044868,1.154636,-0.359371,-0.069851,-0.184868,1
11/11/2017 21:33:57.748027,32.680,35.388,1033.457,80.114963,356.626593,6.428175,8.568524,-54.202023,53.857292,0.161711,-0.007960,0.865368,0.021198,0.053849,-0.219687,1
11/11/2017 21:33:57.916640,32.716,35.455,1033.457,81.056935,356.241930,6.798646,8.901925,-53.216599,54.141972,0.080007,0.030106,0.791771,0.111421,-0.001667,0.195438,1
11/11/2017 21:34:05.863783,32.716,36.159,1033.402,66.483074,26.282664,15.891180,8.113379,-54.234600,54.750816,0.124375,0.119211,1.130266,-0.244042,-0.039743,0.304145,4
11/11/2017 21:34:06.032724,32.751,35.820,1033.403,69.076831,21.384728,14.734960,6.962310,-56.158352,55.454403,0.079522,-0.152455,0.845141,-0.036653,-0.060513,0.412573,4
11/11/2017 21:34:06.194347,32.698,35.617,1033.404,73.748025,17.691061,15.686924,5.967235,-57.452251,55.303520,0.010183,-0.105657,0.766183,0.199751,-0.091972,0.365842,4
11/11/2017 21:34:06.363091,32.805,36.059,1033.414,77.037116,16.386812,14.669648,4.440984,-58.280216,54.734890,0.032245,-0.013267,0.780805,-0.158216,0.030811,0.194189,4
11/11/2017 21:34:06.528242,32.645,35.750,1033.415,77.849034,15.379638,13.138983,3.191389,-58.679668,54.762825,0.151529,-0.072368,1.294274,0.156685,0.071739,-0.375443,4
11/11/2017 21:34:06.697047,32.698,36.272,1033.422,74.312759,13.495184,7.762977,1.681842,-58.160240,54.656807,0.224262,-0.138946,0.979174,-0.122785,0.201243,-0.476847,4
11/11/2017 21:34:06.858862,32.645,35.973,1033.429,69.655847,13.754353,9.595834,-0.022844,-57.679470,54.370903,0.147407,-0.014956,0.741569,0.270917,0.307839,-0.420036,4
11/11/2017 21:34:07.024064,32.556,35.514,1033.436,68.832174,13.222091,10.687861,-1.081228,-56.121262,53.655209,0.089947,-0.054758,0.884620,0.108427,0.106253,-0.401710,4
11/11/2017 21:34:07.185686,32.627,35.996,1033.433,70.980603,13.044938,9.765232,-0.966743,-55.184620,53.227390,-0.087627,-0.022193,1.179980,-0.584599,-0.329904,0.488320,4
11/11/2017 21:34:07.354581,32.609,35.541,1033.428,78.149993,8.523289,9.850800,-0.723757,-54.847607,52.766365,-0.087133,-0.048728,0.830763,0.189672,-0.461240,0.677689,4
11/11/2017 21:34:07.519911,32.503,35.717,1033.417,82.419483,6.208873,10.101520,-0.126448,-56.069977,52.067711,0.032003,0.029621,0.695267,0.219910,0.076321,0.164867,4
11/11/2017 21:34:07.681549,32.538,35.627,1033.419,83.895029,4.210417,8.899929,-0.035096,-56.838470,51.718430,0.193714,-0.002895,1.298173,-0.260841,-0.033329,-0.144536,4
11/11/2017 21:34:07.850382,32.592,35.508,1033.425,80.965465,0.320695,4.344934,0.148784,-57.892689,50.843128,0.209473,-0.079363,0.915325,0.100180,0.267216,-0.658885,4
11/11/2017 21:34:08.015541,32.521,35.724,1033.413,78.828989,1.670000,5.360464,1.050879,-58.520195,50.318130,0.078310,-0.058618,0.751561,0.341167,0.200021,-0.370862,4
11/11/2017 21:34:08.184184,32.538,35.647,1033.396,77.008238,3.036520,6.525723,1.780163,-57.557621,50.454170,0.038549,0.086677,0.795914,0.133473,0.113278,-0.268847,4
11/11/2017 21:34:08.345991,32.574,40.549,1033.390,77.037021,4.087840,6.200073,2.158917,-56.597443,50.752834,-0.005677,0.007284,1.157804,-0.326509,0.033255,0.322470,4
11/11/2017 21:34:08.511560,32.414,35.740,1033.376,81.312446,4.275609,7.586903,2.245080,-57.209007,50.756538,-0.078247,-0.030394,0.881939,-0.029628,-0.129541,0.697236,4
11/11/2017 21:34:08.673395,32.450,35.690,1033.375,87.742550,1.353802,8.150670,1.810666,-58.019478,50.628098,0.056975,0.020880,0.695267,0.093155,-0.056542,0.587281,4
11/11/2017 21:34:08.838608,32.467,35.428,1033.362,91.619092,0.558616,10.235744,0.964710,-58.869057,50.925171,0.110070,0.152231,0.824426,0.405918,0.101672,0.293760,4
11/11/2017 21:34:17.731638,32.663,36.471,1033.307,158.158358,350.821703,323.929378,2.363367,-59.039707,53.148743,0.078795,0.069439,0.914594,-0.111041,-0.075110,0.182604,2
11/11/2017 21:34:17.897523,32.609,36.800,1033.316,156.054687,350.360950,325.872751,4.519740,-59.142483,55.534706,0.034912,0.012382,0.982098,0.000748,-0.069306,0.322186,2
11/11/2017 21:34:18.066165,32.538,36.371,1033.324,153.940183,351.818572,328.395806,5.017090,-60.225262,56.360329,-0.041222,0.030106,0.926048,0.072219,0.066000,0.488036,2
11/11/2017 21:34:18.227731,32.485,36.258,1033.328,152.833665,354.420557,331.022246,4.407895,-61.068748,56.420773,0.008486,0.001214,0.951392,0.115285,0.117618,0.848752,2
11/11/2017 21:34:18.392806,32.627,36.404,1033.319,155.260595,357.320407,334.046244,2.873410,-62.449402,56.963169,0.050429,0.002185,0.945300,0.126280,-0.064725,0.997192,2
11/11/2017 21:34:18.554344,32.627,36.783,1033.318,157.665232,359.721614,337.452770,0.555091,-63.928207,58.009350,0.113222,0.044674,0.895099,0.225546,0.215968,0.859442,2
11/11/2017 21:34:18.719402,32.627,36.315,1033.310,161.794149,3.150737,339.872069,-1.891428,-64.683182,58.868679,0.066188,0.006070,0.965040,0.057558,0.026905,1.264446,2
11/11/2017 21:34:18.888076,32.592,36.448,1033.300,167.428878,5.382468,342.476062,-5.892087,-65.496552,59.540611,0.123405,0.002671,0.924342,0.069165,0.010717,1.164264,2
11/11/2017 21:34:19.049640,32.556,36.660,1033.303,172.407867,6.926595,345.223149,-9.619763,-65.474121,60.058392,0.122920,0.069924,0.918006,0.043203,0.091962,1.229627,2
11/11/2017 21:34:19.214856,32.592,35.959,1033.291,178.649007,8.813131,347.294380,-13.731856,-65.143448,60.168465,0.073704,0.016024,0.924830,0.091767,0.117618,1.277274,2
11/11/2017 21:34:19.383463,32.734,36.514,1033.286,184.687035,10.088694,349.813280,-18.254419,-64.336945,60.309067,0.108373,-0.046315,0.922393,0.056947,-0.060143,1.280634,2
11/11/2017 21:34:19.552065,32.698,36.507,1033.291,191.205480,11.425256,351.465183,-22.441719,-63.034294,60.344921,0.021820,-0.053793,0.977224,-0.036515,0.026294,1.212522,2
11/11/2017 21:34:19.713437,32.698,40.330,1033.293,193.215701,12.166326,353.384026,-25.980436,-60.424683,60.387905,0.021578,-0.020504,0.952611,0.101235,0.060808,0.774226,2
11/11/2017 21:34:19.878672,32.787,36.451,1033.288,194.435354,11.945447,356.105830,-28.301849,-57.957726,59.837803,0.034912,0.000728,0.959435,-0.021549,0.091046,0.839895,2
11/11/2017 21:34:20.047339,32.627,36.577,1033.294,195.273213,11.815988,358.269154,-30.708662,-55.340275,59.898018,0.091887,0.012382,0.921661,0.160794,-0.037847,0.681375,2
11/11/2017 21:34:20.208923,32.645,36.580,1033.299,195.484990,11.339944,359.896812,-32.666409,-51.899647,59.866940,0.117101,0.021123,1.045947,0.008689,0.102347,0.702755,2
11/11/2017 21:34:20.377930,32.645,35.013,1033.301,196.988957,9.698577,2.105504,-33.754616,-48.164101,60.036728,0.152014,0.110713,0.917519,0.117423,-0.044872,0.676794,2
11/11/2017 21:34:20.543136,32.663,36.444,1033.294,198.633844,7.804822,2.846224,-34.454403,-44.608192,59.878124,0.111040,0.078908,0.895099,-0.091798,-0.032960,0.776059,2
11/11/2017 21:34:20.704701,32.734,36.418,1033.289,199.757424,7.240842,2.629209,-34.327511,-41.848602,59.483063,0.105222,0.072838,0.950418,-0.065837,0.181759,0.776059,2
11/11/2017 21:34:20.866137,32.592,37.793,1033.280,203.302756,6.208442,2.714839,-34.378597,-38.963192,59.261444,0.093099,-0.017368,0.980636,0.122615,0.129225,0.935495,2
11/11/2017 21:34:21.031348,32.663,36.255,1033.282,208.069969,6.294834,3.264821,-33.273117,-35.630527,58.903999,0.034912,-0.045592,0.942132,0.031596,0.014382,1.046672,2
11/11/2017 21:34:21.200039,32.680,36.534,1033.299,213.312795,5.834165,3.164288,-31.693409,-31.840250,58.028175,0.026427,-0.036666,0.933603,-0.036515,0.041871,1.065304,2
11/11/2017 21:34:21.361570,32.680,36.375,1033.305,216.512451,5.676941,2.970770,-29.255283,-28.826218,57.652317,0.004849,-0.024605,0.996720,-0.026741,0.051950,0.776365,2
11/11/2017 21:34:21.526552,32.769,37.192,1033.305,216.329061,5.065246,3.314679,-25.920872,-26.422525,57.699837,0.025942,-0.000482,0.949930,0.111925,-0.082135,0.590051,2
11/11/2017 21:34:21.688101,32.805,36.434,1033.313,215.636835,4.326636,4.035890,-23.328051,-24.585358,57.544697,0.016244,-0.001447,0.925561,0.257311,0.035457,0.659384,2
11/11/2017 21:34:21.856867,32.698,36.521,1033.325,215.424389,3.888312,5.601904,-20.140976,-22.969337,57.161583,0.093342,0.023308,0.898267,0.179731,0.142053,0.617234,2
11/11/2017 21:34:22.022387,32.663,36.660,1033.332,215.264958,3.952872,5.876923,-16.888077,-22.013168,56.208897,0.148862,0.032291,0.953829,0.047784,0.135639,0.714362,2
11/11/2017 21:34:22.183913,32.609,36.999,1033.328,215.124379,2.335392,5.804005,-13.768106,-21.770786,55.572807,0.138194,0.011168,0.881939,0.351384,-0.086411,0.674350,2
11/11/2017 21:34:25.559033,32.645,36.783,1033.292,200.295547,357.568494,357.043644,-7.679205,-22.793640,55.356220,0.098918,0.073081,0.915325,-0.041200,0.092817,-0.041133,3
11/11/2017 21:34:25.730709,32.592,36.268,1033.294,192.461757,357.415517,357.386072,-3.106850,-24.126646,55.698067,0.092857,0.019181,0.954073,0.107545,0.040588,-0.208510,3
11/11/2017 21:34:25.898841,32.751,37.218,1033.291,182.588732,356.629475,358.219839,-1.804925,-24.106390,55.822479,0.074673,0.018209,0.952124,0.015916,-0.042795,-0.487065,3
11/11/2017 21:34:26.066915,32.751,36.939,1033.298,170.981109,355.660412,358.219042,-1.621852,-23.600697,55.180817,0.049459,0.024279,0.999401,-0.069911,0.020430,-0.761038,3
11/11/2017 21:34:26.235549,32.680,36.703,1033.297,156.765696,355.672880,359.200807,-3.054929,-22.832664,55.215408,0.044368,0.041760,0.912157,0.024162,-0.001561,-1.069219,3
11/11/2017 21:34:26.408061,32.645,36.926,1033.292,140.146848,355.181594,359.256761,-6.292297,-21.727985,55.920815,0.069340,-0.056447,1.020846,-0.129165,0.110227,-1.509653,3
11/11/2017 21:34:26.579638,32.734,37.032,1033.288,124.912234,355.628148,359.932720,-11.068445,-21.081964,55.580364,0.120011,-0.012544,0.928729,-0.056777,-0.080057,-1.498352,3
11/11/2017 21:34:26.747886,32.663,36.982,1033.292,111.075542,354.817014,0.702140,-17.192533,-21.514952,55.816887,0.154680,-0.011820,1.007930,-0.041506,-0.113655,-1.356326,3
11/11/2017 21:34:26.915869,32.627,36.863,1033.290,101.200174,354.207759,2.958494,-23.547821,-23.363308,56.615932,0.102797,0.064583,0.900704,0.127399,-0.024469,-1.217660,3
11/11/2017 21:34:27.083930,32.645,36.840,1033.299,94.321975,353.387356,3.879382,-28.875420,-26.105158,57.224880,0.062066,0.011411,0.891687,0.262400,-0.004310,-0.988280,3
11/11/2017 21:34:27.251833,32.609,36.760,1033.292,89.400305,354.074397,5.502017,-32.474247,-29.361298,57.241524,0.003637,0.033020,0.889493,0.129842,-0.119458,-0.833731,3
11/11/2017 21:34:27.419904,32.503,37.195,1033.288,84.313959,354.927380,5.525971,-34.862621,-33.589359,57.677502,-0.009627,0.047345,0.953586,-0.150851,0.000271,-1.049977,3
11/11/2017 21:34:27.587831,32.680,37.148,1033.286,78.463287,355.853679,4.775964,-36.307323,-38.268261,58.263977,0.012850,0.046859,0.907040,-0.132830,-0.063564,-1.088156,3
11/11/2017 21:34:27.755689,32.485,40.971,1033.291,71.125226,356.102266,4.200184,-36.576851,-43.001907,58.959656,0.032003,0.017724,0.992090,-0.062886,-0.155194,-1.346247,3
11/11/2017 21:34:27.930850,32.609,36.747,1033.289,61.712829,356.099030,5.197942,-35.096218,-49.121933,59.511326,0.088008,0.013839,0.869023,-0.026845,-0.145115,-1.353272,3
11/11/2017 21:34:28.106785,32.538,35.345,1033.286,53.657532,355.328952,4.808087,-32.136906,-54.401077,60.126320,0.135770,-0.006031,0.956023,-0.254392,-0.128010,-1.359380,3
11/11/2017 21:34:28.281988,32.574,36.846,1033.284,47.190105,355.733126,4.070081,-28.111259,-59.201641,60.100449,0.058429,0.017724,0.962846,-0.007297,0.015237,-1.126641,3
11/11/2017 21:34:28.453571,32.592,36.790,1033.294,42.645051,356.387369,4.893932,-23.883730,-62.638432,60.376011,0.122678,0.039332,0.905578,0.073948,-0.018055,-0.974841,3
11/11/2017 21:34:28.621684,32.485,36.547,1033.292,40.429304,355.891012,4.814683,-20.167946,-64.539825,60.449142,0.107161,-0.012303,1.035712,-0.098927,-0.124651,-0.739963,3
11/11/2017 21:34:28.789724,32.609,36.790,1033.294,38.266736,356.851453,4.156829,-16.489641,-65.392471,60.305202,0.050186,0.038118,0.955292,-0.032037,0.015237,-0.864580,3
11/11/2017 21:34:28.957743,32.680,36.727,1033.297,35.639920,357.582607,3.969730,-13.322385,-65.538422,60.331356,-0.001234,0.048559,0.945300,-0.013100,0.024400,-0.937883,3
11/11/2017 21:34:29.125753,32.645,36.703,1033.304,31.102653,358.500921,3.193570,-10.309689,-65.870567,60.323395,-0.009133,0.039575,0.895099,-0.134968,0.079378,-1.171845,3
11/11/2017 21:34:29.300959,32.609,36.949,1033.305,24.429673,359.092232,2.561993,-6.530417,-65.496651,59.749592,0.022790,-0.006996,1.009880,0.006753,-0.144809,-1.405501,3
11/11/2017 21:34:29.476347,32.609,37.374,1033.290,14.994535,359.225378,3.233268,-2.104666,-64.324806,59.625668,0.091160,0.006070,0.891443,-0.027761,0.019208,-1.581124,3
11/11/2017 21:34:29.651447,32.503,37.095,1033.282,6.035805,358.722571,3.164968,2.331533,-61.546215,59.237381,0.142073,0.006555,0.925804,-0.127943,-0.171993,-1.543251,3
11/11/2017 21:34:29.819632,32.627,36.856,1033.282,1.395935,358.007649,2.927325,6.028134,-57.844185,58.362293,0.117586,0.022094,0.982342,0.036991,-0.046765,-1.035622,3
11/11/2017 21:34:29.990949,32.609,36.763,1033.270,358.488917,359.124564,3.742724,8.487301,-54.078972,57.453491,0.097706,0.066040,0.928241,-0.001799,0.072964,-0.947352,3
11/11/2017 21:34:30.158756,32.680,36.972,1033.271,357.112727,359.197518,4.721153,10.190380,-50.344337,57.071766,0.085341,0.079150,0.885351,0.029966,0.013405,-0.778142,3
11/11/2017 21:34:30.326897,32.592,36.846,1033.270,356.748138,359.230994,5.260522,10.958380,-47.408886,56.636662,0.027154,0.043703,0.933603,0.030271,-0.089220,-0.639781,3
11/11/2017 21:34:30.494856,32.663,36.939,1033.270,356.224504,359.583540,4.818202,11.377608,-45.095367,56.166073,-0.026905,0.033020,0.938477,-0.173147,0.036618,-0.735992,3
11/11/2017 21:34:30.662804,32.485,37.560,1033.280,354.906825,0.372362,4.094099,11.281885,-42.662231,55.931221,-0.010367,0.040546,0.912645,0.057760,0.000577,-0.838007,3
11/11/2017 21:34:44.857922,32.556,37.889,1033.296,321.101055,312.039429,74.027482,-2.997145,-40.031269,56.428997,0.089705,0.068953,1.004031,-0.070257,-0.054458,0.049842,4
11/11/2017 21:34:45.019983,32.680,37.643,1033.302,301.162654,320.746319,83.106245,-17.395487,-38.476929,57.711014,0.081462,0.045645,0.959678,0.075434,0.120861,0.148802,4
11/11/2017 21:34:45.185137,32.609,37.766,1033.308,286.688130,328.695546,86.848785,-23.856302,-37.593815,58.351212,0.084614,0.092504,0.801519,0.027786,-0.012003,0.148802,4
11/11/2017 21:34:45.354012,32.574,37.756,1033.296,274.774669,336.942936,86.300287,-26.226604,-37.033154,58.691013,0.167773,0.096146,1.164140,-0.231634,-0.019995,-0.005928,4
11/11/2017 21:34:45.515605,32.556,37.829,1033.301,264.417725,347.229374,80.292261,-27.506203,-37.604141,58.732544,0.205352,-0.133880,1.216778,-0.285390,-0.497387,-0.557234,4
11/11/2017 21:34:45.680801,32.574,38.939,1033.292,254.601397,0.041172,76.660575,-27.926569,-39.039883,59.239769,0.181834,-0.048969,0.781536,0.441540,0.181285,-0.592664,4
11/11/2017 21:34:45.849600,32.450,37.235,1033.289,246.059829,8.792617,74.271559,-29.094700,-40.101589,59.684029,0.138921,0.081093,0.709158,0.286685,0.072856,-0.282650,4
11/11/2017 21:34:46.012036,32.521,37.789,1033.283,239.754588,14.861896,71.265600,-30.189058,-40.406002,60.279480,0.096978,0.062883,1.242610,0.149851,0.537724,0.099752,4
11/11/2017 21:34:46.177481,32.485,37.733,1033.281,233.986903,16.952588,65.754422,-31.726223,-40.866344,60.161591,-0.052329,0.003156,0.852695,0.075631,0.027957,0.616544,4
11/11/2017 21:34:46.339129,32.343,37.769,1033.270,228.888454,16.997692,66.386515,-32.624596,-41.014256,59.608036,-0.033570,0.054386,0.658469,0.371290,-0.004113,0.489789,4
11/11/2017 21:34:46.504432,32.432,38.075,1033.270,224.487257,17.101619,63.809280,-32.965691,-39.356640,59.556805,0.042913,0.022094,0.905334,-0.058454,-0.055120,0.352955,4
11/11/2017 21:34:46.673284,32.450,37.630,1033.261,217.623860,18.525322,56.728006,-33.046757,-37.994465,59.604839,0.116616,0.098574,1.229694,-0.233772,-0.083220,-0.334268,4
11/11/2017 21:34:46.834958,32.485,35.674,1033.259,206.604224,23.207294,48.370928,-32.587269,-38.789871,59.853886,0.268388,-0.002895,0.918250,0.146186,0.201443,-0.847089,4
11/11/2017 21:34:47.000297,32.432,38.048,1033.250,193.551336,27.269751,43.691959,-33.150513,-40.118679,60.400356,0.136497,0.025736,0.655545,0.327919,0.081103,-0.629011,4
11/11/2017 21:34:47.169031,32.503,37.637,1033.248,184.654100,29.003251,39.371379,-33.407547,-40.787876,60.974766,0.095766,0.141062,0.781048,-0.032492,0.170900,-0.241722,4
11/11/2017 21:34:47.330633,32.485,37.779,1033.239,180.068270,29.241652,36.485436,-33.914665,-41.433632,61.383129,0.043883,0.114598,1.234568,-0.331510,0.151352,0.261631,4
11/11/2017 21:34:47.496519,32.432,37.763,1033.239,178.544232,26.525311,37.050074,-35.160011,-41.359753,62.037224,-0.058747,0.034477,0.800300,0.096401,-0.276253,0.799192,4
11/11/2017 21:34:47.665263,32.414,37.643,1033.240,177.992886,22.276355,37.010920,-34.968735,-40.221218,62.457603,0.013577,0.123581,0.685763,0.119919,-0.056037,0.402741,4
11/11/2017 21:34:47.826901,32.325,37.676,1033.240,176.767536,19.648731,33.492936,-33.411938,-37.990150,62.912876,0.115889,0.052200,1.098342,-0.231023,-0.117734,0.176110,4
11/11/2017 21:34:47.992210,32.361,37.813,1033.235,171.935546,18.488812,27.554687,-32.212494,-37.415558,63.402210,0.156863,-0.006754,1.239930,-0.890452,-0.028242,-0.185217,4
11/11/2017 21:34:48.154137,32.343,36.491,1033.224,164.920819,19.529070,22.688236,-31.758780,-38.072666,64.450218,0.148862,0.010197,0.836855,0.387783,-0.052982,-0.630232,4
11/11/2017 21:34:48.322964,32.325,37.683,1033.224,158.282927,20.040057,20.469005,-31.995871,-38.951145,65.322937,0.039519,0.086920,0.668460,0.126028,-0.111320,-0.293340,4
11/11/2017 21:34:48.488463,32.290,37.570,1033.221,153.493858,19.328141,18.053375,-32.901615,-38.811306,66.411118,0.070067,0.043217,1.147812,-0.215751,0.057890,-0.039220,4
11/11/2017 21:34:48.650278,32.396,37.245,1033.220,155.190845,19.144479,9.121186,-33.634434,-39.342182,66.948868,-0.082937,-0.220722,1.179980,0.026151,0.117449,0.148621,4
11/11/2017 21:34:48.816112,32.325,38.211,1033.210,157.709601,17.488897,11.321228,-34.137409,-39.428513,67.719368,-0.061462,0.031563,0.735721,0.396030,-0.145223,0.630594,4
11/11/2017 21:34:48.978367,32.325,36.979,1033.213,159.316990,13.997946,14.315603,-33.008350,-36.981487,68.517670,0.090675,0.070410,0.728166,0.114116,-0.044430,0.352955,4
11/11/2017 21:34:49.143312,32.361,37.304,1033.202,157.983368,11.386900,13.450988,-30.794996,-34.505768,68.905708,0.272267,0.035448,1.265518,-0.177794,0.217323,-0.200358,4
11/11/2017 21:34:49.312138,32.308,37.172,1033.195,153.577732,10.671355,11.546960,-29.330324,-33.358013,69.492805,0.229111,-0.024605,0.938233,0.169178,0.067356,-0.383312,4
11/11/2017 21:34:49.473817,32.379,38.998,1033.196,148.122324,12.374329,9.446386,-29.445723,-33.736626,69.690819,0.088250,0.056085,0.662368,-0.045236,0.193805,-0.553133,4
11/11/2017 21:34:49.639062,32.396,37.657,1033.188,144.110735,10.950363,7.541124,-30.925756,-34.580856,69.780182,0.089947,0.013111,0.980149,0.634657,-0.031605,-0.331694,4
11/11/2017 21:34:54.550273,32.467,37.278,1033.047,132.726831,352.019302,16.557777,-30.877201,-33.093246,67.958984,-0.004937,0.066282,0.916544,-0.144067,-0.278574,0.099862,1
11/11/2017 21:34:54.716117,32.414,34.043,1033.049,132.726913,352.091432,14.787918,-29.491350,-32.254154,66.527168,0.022305,0.036662,0.945787,-0.086874,-0.009063,-0.026915,1
11/11/2017 21:34:54.877454,32.361,37.510,1033.040,132.625977,352.980448,14.492531,-28.979792,-32.250919,66.413193,0.072006,0.053172,0.912401,0.133383,-0.034683,-0.025411,1
11/11/2017 21:34:55.042376,32.343,37.002,1033.051,132.105735,352.643139,13.025713,-28.902662,-32.181339,65.944099,0.137467,0.082792,0.976737,-0.087281,-0.005400,-0.192177,1
11/11/2017 21:34:55.210891,32.414,37.620,1033.037,130.713305,352.829102,11.127868,-28.993269,-32.691280,66.104706,0.086553,0.170440,0.879746,-0.050191,-0.004271,-0.128311,1
11/11/2017 21:34:55.379346,32.414,37.882,1033.032,129.259595,353.696633,10.706501,-28.597679,-33.795826,66.407852,0.082432,0.132079,1.000132,0.051044,0.071241,-0.014559,1
11/11/2017 21:34:55.540554,32.379,39.500,1033.020,132.421782,352.580673,8.956140,-28.618887,-34.582924,66.306618,0.032245,-0.017368,1.134409,0.036672,-0.087313,0.119319,1
11/11/2017 21:34:55.701911,32.503,37.454,1033.027,134.791884,351.854021,9.768332,-29.125458,-34.398674,66.548210,-0.023203,-0.015680,0.942376,0.297512,-0.279125,0.278144,1
11/11/2017 21:34:55.866612,32.183,37.321,1033.045,136.671457,351.279806,11.422683,-28.771038,-33.084133,66.305290,0.005819,0.108771,0.688931,0.211991,0.074871,0.155055,1
11/11/2017 21:34:56.028017,32.290,37.447,1033.059,137.218487,350.407565,10.173236,-27.974224,-31.896461,66.153847,0.120496,0.145190,0.957241,-0.170250,0.001241,0.034131,1
11/11/2017 21:34:56.189393,32.450,37.447,1033.076,135.536252,350.774608,7.691328,-28.379589,-31.269320,66.300766,0.234930,-0.059824,1.400526,-0.265239,0.105088,-0.240147,1
11/11/2017 21:34:56.354207,32.343,37.886,1033.081,133.981988,352.989490,7.766347,-29.206327,-31.218885,65.999489,0.165833,0.044188,0.907040,0.106472,0.184806,-0.320782,1
11/11/2017 21:34:56.515623,32.414,37.510,1033.106,132.744221,355.774730,8.253067,-31.205759,-30.642855,65.491127,0.029821,0.172868,0.662124,-0.225838,0.303619,-0.065440,1
11/11/2017 21:34:56.676882,32.290,38.387,1033.120,133.198934,357.898942,5.884469,-33.194096,-30.920282,64.612808,0.013092,0.010683,1.063980,0.125104,0.347296,0.065591,1
11/11/2017 21:34:56.841801,32.308,37.258,1033.148,135.268864,356.106751,2.921065,-33.559505,-31.627794,63.806709,0.028366,-0.017127,1.032056,0.536521,0.070574,0.031993,1
11/11/2017 21:34:57.003161,32.272,36.534,1033.144,135.666586,355.364985,4.009202,-32.615868,-31.362169,63.419376,-0.000000,0.000486,0.862931,0.254302,-0.302970,0.020081,1
11/11/2017 21:34:57.164452,32.485,37.514,1033.131,135.441490,354.094088,4.538125,-31.262581,-30.704752,63.416847,-0.000987,0.099302,0.814191,-0.056043,-0.170041,-0.003682,1
11/11/2017 21:34:57.329558,32.361,38.238,1033.136,133.640041,354.723859,5.661800,-29.834156,-30.588911,63.152435,0.075158,0.076965,1.034249,0.304673,0.186704,-0.168004,1
11/11/2017 21:34:57.490979,32.325,37.766,1033.133,131.617486,356.865965,7.489861,-29.344080,-31.357840,63.152603,0.172621,-0.005066,0.918737,0.187692,0.093547,-0.270324,1
11/11/2017 21:34:57.656002,32.379,37.537,1033.142,131.067341,357.262325,8.387278,-29.705139,-32.185703,62.918457,0.042670,0.064340,0.689906,0.018483,0.137530,-0.009790,1
11/11/2017 21:35:07.745925,32.325,36.893,1033.076,204.528570,343.304479,105.007082,-15.891883,-40.283134,64.415146,0.094554,0.119211,0.868048,0.267716,0.059950,0.213481,5
11/11/2017 21:35:07.914777,32.272,37.265,1033.077,200.633259,346.648964,98.883497,-1.676832,-47.622108,65.877403,-0.037519,0.000486,1.297442,-0.822984,-0.739673,0.333211,5
11/11/2017 21:35:08.086963,32.254,37.464,1033.086,208.070502,335.056127,94.911448,5.010732,-51.219807,65.907761,-0.031348,-0.084670,0.973082,0.046888,0.239544,-0.486876,5
11/11/2017 21:35:08.254872,32.290,37.537,1033.099,215.477787,325.132082,100.996027,8.297224,-53.031704,65.488335,0.017214,0.033748,0.654326,0.480908,-0.044814,-0.167699,5
11/11/2017 21:35:08.422887,32.272,37.032,1033.115,226.927219,317.586851,104.566911,9.861363,-51.840424,64.816902,0.127527,0.125281,1.342282,-0.507167,0.144555,-0.046137,5
11/11/2017 21:35:08.590964,32.201,34.385,1033.123,236.680689,305.324103,105.016597,10.905638,-51.146202,63.873562,0.088978,0.232352,0.859762,-0.269235,-0.493800,0.684764,5
11/11/2017 21:35:08.758817,32.112,37.799,1033.126,249.833249,295.706787,100.218273,11.547138,-51.648151,63.342209,0.113950,0.068710,0.694049,0.126991,0.089247,0.016375,5
11/11/2017 21:35:08.926797,32.219,37.374,1033.145,271.969004,285.442994,86.832318,11.534944,-51.168247,62.611130,0.111525,0.036662,0.883157,0.337434,0.228829,0.423211,5
11/11/2017 21:35:09.095022,32.183,37.461,1033.165,307.762833,279.731569,53.822567,10.490076,-50.155903,62.361359,0.196866,-0.180678,1.504097,-0.989060,-0.580873,-0.065787,5
11/11/2017 21:35:09.263028,32.272,37.630,1033.178,329.641930,279.804700,29.988075,10.555672,-50.789051,61.221172,0.088493,0.025493,0.890712,0.128213,0.154915,-0.520576,5
11/11/2017 21:35:09.431057,32.130,37.530,1033.190,349.928798,284.672275,15.363860,11.111238,-50.385048,59.876137,-0.012835,0.036419,0.773494,0.198462,0.223332,-0.441163,5
11/11/2017 21:35:09.599084,32.166,37.610,1033.197,358.360583,292.204212,16.172372,10.917453,-48.752327,59.194164,0.082674,0.187436,1.176568,0.057658,0.062674,-0.110380,5
11/11/2017 21:35:09.767205,32.059,37.999,1033.199,14.393596,296.911079,5.301655,10.382503,-47.154938,58.685120,0.085826,0.204189,0.843435,-0.440808,-0.011241,0.575316,5
11/11/2017 21:35:09.935887,32.166,37.401,1033.200,28.899965,302.215705,358.101737,10.063695,-48.031307,57.746162,0.123647,0.086434,0.715007,0.375308,0.210809,0.232621,5
11/11/2017 21:35:10.110946,32.130,37.384,1033.208,43.009913,307.655312,351.621525,9.465507,-48.291180,57.747932,0.064733,0.056813,0.976250,0.474268,0.090468,0.208797,5
11/11/2017 21:35:10.278877,32.095,37.421,1033.223,54.797108,306.498961,339.647793,8.966793,-49.023525,57.731571,0.145710,0.176510,1.050577,0.873163,-0.294377,-0.436887,5
11/11/2017 21:35:10.454478,32.077,37.374,1033.217,50.188664,310.750812,351.605218,9.122869,-49.609962,56.742443,0.007516,0.163885,0.643603,0.385387,0.261511,-0.016001,5
11/11/2017 21:35:10.629680,32.077,37.557,1033.218,51.093766,316.496503,357.535552,8.838876,-48.534725,57.007931,-0.013576,0.198847,0.789578,-0.054122,0.108768,-0.067384,5
11/11/2017 21:35:10.801188,32.112,37.733,1033.224,54.477288,321.567335,358.190969,8.017492,-47.099430,57.070782,0.092129,0.126009,1.245291,-0.375742,-0.047919,0.231024,5
11/11/2017 21:35:10.969111,32.130,37.118,1033.231,62.289782,324.360254,353.152952,7.689239,-48.223591,57.275692,0.051156,0.181852,0.884376,-0.572441,-0.455366,0.777748,5
11/11/2017 21:35:11.136856,31.988,37.321,1033.244,68.601798,328.711563,351.879167,8.002129,-50.636070,57.222336,0.116374,0.108771,0.664318,0.349966,0.258430,0.349226,5
11/11/2017 21:35:11.304775,32.148,37.490,1033.250,74.998578,333.044382,354.462484,7.341464,-52.135490,57.582615,0.120253,0.118240,1.019140,0.620579,0.627392,0.351059,5
11/11/2017 21:35:11.473134,31.988,36.929,1033.258,78.281256,332.297181,352.486892,6.081984,-53.825001,58.334087,0.083644,0.237937,0.982829,0.406165,0.187264,-0.316006,5
11/11/2017 21:35:11.641063,32.077,37.421,1033.275,77.481591,335.599006,357.362921,5.165652,-54.878624,58.953575,-0.052823,0.144704,0.724754,0.018639,-0.012906,0.191252,5
11/11/2017 21:35:11.809539,32.148,37.022,1033.289,77.952560,337.371424,359.978145,4.674644,-55.113049,59.650272,0.052853,0.109499,0.823695,0.148447,0.057039,-0.099520,5
11/11/2017 21:35:20.091524,32.041,37.374,1033.369,184.478195,56.018896,6.574351,-5.936719,-49.969406,57.366531,0.044368,0.028892,0.749368,-0.021984,0.041461,0.116421,5
11/11/2017 21:35:20.267498,32.183,38.324,1033.367,181.419609,54.645058,7.739980,-16.766201,-44.231392,54.751705,0.021820,0.003399,0.843191,0.120958,-0.055972,0.497296,5
11/11/2017 21:35:20.439943,32.077,37.424,1033.370,174.090867,41.002244,357.676331,-20.480223,-41.763630,53.216732,0.031760,-0.097938,0.854157,1.662477,-0.124388,-1.412269,5
11/11/2017 21:35:20.611632,32.095,38.640,1033.380,154.933457,36.336921,351.171863,-20.841637,-41.565136,52.513325,0.114677,0.037147,0.907527,0.124013,-0.246867,-0.296524,5
11/11/2017 21:35:20.783237,31.988,37.550,1033.391,147.348354,31.846232,352.512606,-20.962496,-41.392113,51.832264,0.040488,0.030349,0.638729,0.466403,0.061315,-0.305076,5
11/11/2017 21:35:20.951278,32.095,36.979,1033.396,140.956827,30.589668,353.538581,-21.273281,-40.864719,51.453873,-0.091576,-0.003377,0.751317,0.623395,0.061315,-0.601651,5
11/11/2017 21:35:21.119230,32.148,37.354,1033.389,137.488211,28.971972,346.471669,-22.021746,-40.417946,51.627682,0.194199,0.000728,1.175106,0.233663,-0.204717,0.106647,5
11/11/2017 21:35:21.294190,32.024,37.544,1033.396,138.854522,24.359866,346.994683,-22.076920,-40.858036,52.921925,0.179410,0.119697,0.837586,0.474649,0.141032,0.090154,5
11/11/2017 21:35:21.469350,32.006,37.474,1033.399,139.563987,22.962519,351.949612,-21.701630,-40.231659,53.580723,0.166803,-0.059583,0.761065,0.270010,0.274812,0.150935,5
11/11/2017 21:35:21.640795,31.899,37.570,1033.404,140.125197,23.533056,355.645517,-21.628067,-38.889034,53.143955,0.044368,0.135721,0.890712,0.174409,0.359111,0.149408,5
11/11/2017 21:35:21.808937,31.988,37.431,1033.400,135.861656,18.807372,354.613399,-21.703314,-38.519867,54.477421,0.069824,0.153202,0.847578,0.177463,0.267787,-0.678620,5
11/11/2017 21:35:21.977127,31.935,37.564,1033.405,130.517798,18.055542,356.970482,-21.499933,-39.808002,55.969604,-0.019747,0.022094,0.700385,-0.032665,-0.126617,-0.014110,5
11/11/2017 21:35:22.145036,31.793,37.421,1033.416,126.710869,17.715972,357.972158,-21.708460,-40.117142,57.172031,0.023517,0.023551,0.764233,0.251082,0.053894,-0.413921,5
11/11/2017 21:35:22.312960,31.917,37.182,1033.427,125.032692,15.257775,354.031696,-23.305222,-39.471031,58.055920,0.218201,-0.285129,1.736584,-1.298989,-0.237489,0.006354,5
11/11/2017 21:35:22.481151,31.935,37.341,1033.432,128.854524,13.049152,348.324365,-23.969341,-40.296192,59.503223,0.087038,0.008983,0.692586,0.386083,0.246622,-0.223026,5
11/11/2017 21:35:22.649040,31.917,37.477,1033.439,130.628433,11.919659,352.717926,-24.367754,-39.873688,60.058743,0.071037,0.018452,0.845141,0.732138,0.315650,0.202747,5
11/11/2017 21:35:22.817068,31.917,37.570,1033.441,134.543033,2.840216,347.270108,-24.573847,-37.876492,60.139324,0.215534,-0.051864,1.256257,0.558042,-0.272919,-0.726379,5
11/11/2017 21:35:22.985061,31.917,37.208,1033.450,131.312928,359.476234,348.591245,-24.487272,-37.497295,61.083881,0.010183,0.146890,0.725973,0.440450,-0.053008,-0.002809,5
11/11/2017 21:35:23.160680,31.882,37.803,1033.456,127.894691,359.997764,353.634960,-24.808523,-37.085110,60.810562,0.037094,0.095417,0.641166,0.266048,0.347415,-0.192177,5
11/11/2017 21:35:23.328865,31.988,37.869,1033.458,128.011173,0.723941,352.791231,-26.340160,-36.476063,60.261169,0.225717,-0.419009,2.019759,-0.981644,-0.345612,-0.166826,5
11/11/2017 21:35:23.497582,31.917,37.364,1033.456,133.945706,358.710583,347.936762,-26.620621,-36.024597,60.696598,0.073704,0.072838,0.785191,-0.147508,-0.056978,0.019488,5
11/11/2017 21:35:28.910471,32.201,37.404,1033.471,134.394654,333.749710,347.708160,-27.668726,-36.564095,60.756927,0.061824,0.007041,0.944325,-0.047888,-0.068873,0.007068,1
11/11/2017 21:35:29.076111,32.201,37.680,1033.469,133.535239,335.919362,349.264919,-29.106157,-36.801350,61.025978,0.074431,0.000971,0.938964,-0.088564,0.045631,0.023154,1
11/11/2017 21:35:29.239583,32.041,37.600,1033.479,133.922852,337.101958,350.645054,-29.682831,-37.295746,61.332653,0.045337,0.032534,0.879258,0.026664,-0.065837,0.091159,1
11/11/2017 21:35:29.404385,32.112,37.587,1033.487,132.479497,339.934323,350.260211,-29.618511,-37.915249,62.015427,0.022063,0.034719,0.962115,-0.102534,0.242039,-0.148911,1
11/11/2017 21:35:29.572720,32.095,37.733,1033.492,131.602391,342.281267,350.558911,-29.944580,-38.413658,62.213459,0.006304,0.055842,0.891687,-0.094621,-0.080933,0.042757,1
11/11/2017 21:35:29.734513,32.130,37.889,1033.493,129.924296,343.628038,351.923433,-30.062256,-38.668034,62.828552,0.036609,0.048801,0.980880,0.101772,0.089193,-0.136838,1
11/11/2017 21:35:29.899688,32.201,37.544,1033.506,130.293495,347.474959,353.293655,-30.213421,-38.842999,62.314087,0.072006,-0.103968,1.194846,0.231276,0.208312,0.076049,1
11/11/2017 21:35:30.061012,31.988,37.115,1033.510,131.064773,349.779854,356.467053,-30.368568,-37.751183,62.320107,0.022790,-0.026294,0.877065,0.215393,-0.180198,0.074216,1
11/11/2017 21:35:30.226413,32.024,37.218,1033.513,132.076119,351.014135,0.011004,-29.430527,-35.743736,62.682293,0.091402,0.008983,0.683570,0.223029,0.116988,-0.003975,1
11/11/2017 21:35:30.395190,31.935,37.839,1033.519,130.714262,350.489333,1.092111,-28.682915,-34.544785,62.690926,0.123890,0.095903,1.094930,-0.085017,0.174665,0.509717,1
11/11/2017 21:35:30.556662,32.006,37.720,1033.518,129.537516,350.240630,2.917155,-27.800802,-34.779057,62.704292,0.111283,0.065068,0.899485,-0.408776,-0.057769,0.265371,1
11/11/2017 21:35:30.721762,32.112,37.364,1033.514,130.753959,350.952515,3.054263,-27.292690,-35.410404,63.507320,0.061824,0.014325,0.697217,-0.120246,0.020590,0.145388,1
11/11/2017 21:35:30.890765,32.024,37.839,1033.518,131.422825,351.474666,0.063445,-27.133232,-36.505394,64.118080,0.041458,-0.028706,0.987703,-0.249138,0.014175,-0.111786,1
11/11/2017 21:35:31.052168,31.811,37.796,1033.514,127.900948,353.235259,0.989221,-27.197681,-37.798721,64.594528,0.185714,-0.077916,1.416610,-0.838929,0.683989,0.201282,1
11/11/2017 21:35:31.220915,31.988,37.740,1033.509,127.250932,354.342215,0.245838,-28.288761,-38.784878,64.653381,0.151529,-0.139670,0.945300,-0.059464,-0.010259,-0.218077,1
11/11/2017 21:35:31.386203,32.006,37.929,1033.512,127.251410,353.768914,359.922156,-29.271004,-39.202595,64.551147,0.019153,0.053900,0.663830,-0.008970,0.058193,-0.015683,1
11/11/2017 21:35:31.554517,32.059,37.334,1033.508,128.481008,354.974660,359.062895,-29.457237,-40.029819,64.883301,0.065945,0.007527,1.096636,0.156269,0.137910,0.221944,1
11/11/2017 21:35:31.715742,31.935,42.296,1033.510,131.513681,354.720350,358.992336,-29.232450,-40.436237,64.804939,0.108858,-0.156556,0.989165,0.670312,0.141881,0.029826,1
11/11/2017 21:35:31.884572,31.935,37.537,1033.512,133.068286,353.350206,2.153348,-28.771568,-39.887806,64.484207,0.025942,-0.013026,0.678939,0.252481,-0.193789,0.143753,1
11/11/2017 21:35:32.049628,32.006,37.670,1033.510,132.731503,353.462309,1.983243,-27.987938,-39.306171,64.785156,0.063036,-0.019781,0.896073,-0.275918,0.095455,-0.036758,1
11/11/2017 21:35:32.218018,31.811,37.288,1033.508,129.159055,354.871053,4.831864,-28.077267,-39.060608,64.814789,0.093584,-0.024605,1.249678,-0.384957,0.127831,-0.218796,1
11/11/2017 21:35:32.386489,31.793,37.700,1033.514,127.346309,355.902558,6.785278,-28.683796,-39.065475,64.865662,0.059399,-0.092148,0.917275,-0.209116,0.038080,-0.078795,1
11/11/2017 21:35:32.555775,31.811,38.201,1033.518,128.756757,355.846872,5.368492,-29.336704,-39.107346,64.782951,0.008970,0.035933,0.713057,0.012826,-0.124314,0.158448,1
11/11/2017 21:35:32.717071,31.917,37.627,1033.517,131.599686,354.599213,3.763485,-29.378653,-39.196507,65.422424,0.115889,0.020152,1.071779,-0.023215,-0.096520,0.492896,1
11/11/2017 21:35:32.882118,31.917,37.560,1033.516,136.387553,353.021726,359.007985,-28.575333,-39.511292,66.362991,0.116132,-0.262695,1.282333,0.072996,0.156989,0.197849,1
11/11/2017 21:35:33.043529,31.899,37.404,1033.510,139.757651,353.316232,357.264095,-28.043438,-39.223381,66.411125,0.060127,-0.075745,0.819065,0.256561,-0.027186,0.123934,1
11/11/2017 21:35:33.204468,31.864,37.162,1033.502,140.492224,354.057913,357.339078,-27.924665,-38.137367,65.849922,0.006061,-0.014232,0.896073,-0.074178,0.072258,0.079649,1
11/11/2017 21:35:33.369423,31.882,37.431,1033.500,137.655414,354.930852,358.412798,-27.835796,-37.453808,65.963898,0.081704,0.044431,1.008417,0.259049,0.096082,-0.186383,1
11/11/2017 21:35:33.537915,31.864,36.600,1033.497,132.993332,357.128520,4.548296,-27.788679,-38.019360,65.871262,0.095766,0.062155,0.764477,0.219953,0.127542,-0.327798,1
11/11/2017 21:35:33.699295,31.882,37.813,1033.495,130.833517,357.261383,6.641675,-28.577662,-38.584106,65.974052,0.065703,0.037876,0.677234,0.154695,-0.001929,-0.050518,1
11/11/2017 21:35:33.864912,31.899,37.188,1033.490,131.449695,357.799983,5.618357,-29.080584,-38.788124,65.861328,0.072491,0.002671,1.038149,-0.052083,0.232338,0.166950,1
11/11/2017 21:35:34.033925,31.864,37.902,1033.500,134.420664,357.126322,2.609077,-29.623920,-39.064304,65.714790,0.008486,-0.180196,1.132215,0.706001,0.156591,-0.289977,1
11/11/2017 21:35:34.195194,31.793,37.182,1033.496,136.206417,356.066872,3.596635,-29.721420,-38.654446,65.908478,0.004122,-0.115788,0.856594,0.189514,-0.360507,0.256136,1
11/11/2017 21:35:34.360300,31.846,36.790,1033.511,134.474540,355.670087,5.272944,-29.300297,-37.663895,65.666489,0.033215,0.081093,0.666511,0.304663,0.045108,-0.191934,1
11/11/2017 21:35:38.927980,31.953,36.800,1033.488,135.907746,352.444513,356.635174,-28.810495,-36.601589,65.126434,0.048732,0.013596,0.965771,0.008042,-0.013459,-0.005000,0
11/11/2017 21:35:39.093096,31.935,36.800,1033.490,135.370729,352.745570,357.061719,-28.601982,-35.855431,64.981758,0.071037,-0.010373,0.927023,0.033838,0.096925,-0.001515,0
11/11/2017 21:35:39.254640,32.024,37.125,1033.481,135.288671,353.174459,356.933801,-28.036936,-35.588139,64.138985,0.051156,-0.024364,0.951149,-0.053258,0.079508,0.001366,0
11/11/2017 21:35:39.419822,31.953,37.537,1033.478,134.848876,353.212479,356.989644,-28.105202,-35.678276,64.421097,0.063763,-0.060548,0.947250,0.040919,0.037223,-0.009360,0
11/11/2017 21:35:39.581374,31.953,37.441,1033.471,134.448831,353.899709,357.292146,-27.878822,-35.686455,65.020676,0.065218,-0.019781,0.944569,0.012052,0.036578,-0.034566,0
11/11/2017 21:35:39.749965,31.935,37.231,1033.471,134.026179,354.344344,357.790800,-27.708319,-35.623642,64.895760,0.054793,-0.008443,0.878283,0.069977,0.031082,-0.020470,0
11/11/2017 21:35:39.915266,31.917,37.138,1033.477,134.099385,354.748392,358.252002,-27.551121,-35.618122,64.830505,0.060127,-0.015197,0.938477,0.048300,0.014583,0.012571,0
11/11/2017 21:35:40.083935,31.970,37.265,1033.475,134.066587,355.339126,358.501498,-27.820063,-35.846958,64.448540,0.057217,-0.006272,0.934577,0.017626,0.036889,0.009020,0
11/11/2017 21:35:40.245733,31.970,37.182,1033.477,133.990580,355.682217,358.752301,-27.494905,-35.701576,64.045860,0.062309,-0.008443,0.944569,0.015181,0.010538,0.008110,0
11/11/2017 21:35:40.411063,32.041,37.245,1033.470,133.898988,355.913652,359.044126,-27.271849,-35.779102,64.220200,0.055278,-0.005548,0.932872,-0.000247,-0.002846,0.014244,0
11/11/2017 21:35:40.572647,32.095,34.339,1033.476,133.568051,356.126740,359.187471,-27.372299,-35.510731,64.403633,0.063036,-0.011338,0.950174,0.023382,0.043292,-0.027144,0
11/11/2017 21:35:40.741465,32.059,37.627,1033.470,133.216119,356.399158,359.603435,-27.556974,-35.601177,64.978828,0.062793,-0.012061,0.878040,0.048575,0.019899,-0.017707,0
11/11/2017 21:35:40.906547,32.041,37.660,1033.479,133.087752,356.569133,359.860384,-27.561153,-35.521961,65.261925,0.050914,-0.014956,0.942132,0.001073,0.033884,-0.085198,0
11/11/2017 21:35:41.075340,32.148,37.344,1033.484,132.908842,356.870931,359.898805,-27.635784,-35.653236,65.289299,0.054065,-0.008925,0.941157,0.043142,0.025865,-0.011281,0
11/11/2017 21:35:41.236968,32.112,37.464,1033.476,132.787688,357.586973,0.748283,-27.946365,-35.986954,65.354683,0.049944,-0.000000,0.950905,0.017029,0.104168,-0.004366,0
11/11/2017 21:35:45.179049,32.041,38.317,1033.478,128.338011,5.257286,5.008133,-14.990725,-42.834923,64.375397,0.082189,0.016510,0.947737,-0.027306,0.022251,-0.008261,0
11/11/2017 21:35:45.345109,31.988,37.773,1033.477,126.592147,4.742679,4.665222,-1.592067,-49.524086,63.482243,0.086311,0.009954,0.946519,-0.010729,0.017777,-0.010866,0
11/11/2017 21:35:45.506695,32.041,37.155,1033.483,124.068569,4.215631,4.146408,4.188847,-52.086178,63.681644,0.075158,0.010197,0.925561,-0.002394,0.036188,-0.016583,0
11/11/2017 21:35:45.671814,32.077,37.736,1033.490,120.977554,3.430289,3.656019,6.727669,-53.418880,63.561611,0.093827,0.008983,0.940426,-0.026051,-0.023802,-0.035667,0
11/11/2017 21:35:45.833410,32.059,37.537,1033.492,118.130594,3.004158,3.208472,7.869498,-54.305580,63.757561,0.072734,-0.001930,0.940913,-0.023382,0.013670,-0.041317,0
11/11/2017 21:35:45.998869,32.024,37.936,1033.478,115.397084,2.719175,2.936438,8.218649,-54.416950,63.656719,0.075886,0.000971,0.943350,0.021234,0.038567,-0.011081,0
11/11/2017 21:35:46.160613,32.095,37.949,1033.468,113.172546,2.548695,2.842529,8.532258,-54.244137,63.602470,0.081219,-0.004342,0.935309,0.028216,0.014370,-0.008381,0
11/11/2017 21:35:46.325883,32.041,37.358,1033.463,111.150496,2.224713,2.609780,8.356297,-54.262207,63.075081,0.075401,0.001942,0.944569,0.010423,-0.017389,0.008947,0
11/11/2017 21:35:46.494768,32.059,38.264,1033.453,109.414802,1.640719,2.543105,8.479883,-53.950127,62.867756,0.087523,-0.001206,0.931897,-0.019166,-0.001458,0.017362,0
11/11/2017 21:35:46.656495,32.077,39.546,1033.440,107.799332,1.195198,2.434123,8.414552,-53.896866,63.292458,0.090432,0.010683,0.953342,0.198886,0.046614,-0.005106,0
11/11/2017 21:35:52.590787,31.917,37.902,1033.485,119.437483,356.229967,341.407038,8.329874,-51.313839,62.639061,0.073946,0.005099,0.944325,-0.034741,0.008534,0.015613,0
11/11/2017 21:35:52.756356,32.077,38.274,1033.496,117.167579,355.619447,342.999562,8.514286,-48.659679,61.654781,0.068127,0.017481,0.930678,0.038565,0.000215,0.038706,0
11/11/2017 21:35:52.918066,31.953,38.005,1033.484,114.771589,355.241258,344.628615,8.718004,-47.249344,61.251011,0.080734,0.001214,0.930678,0.027124,0.000299,0.005696,0
11/11/2017 21:35:53.083778,32.112,38.268,1033.477,112.537182,354.976020,345.958080,8.589168,-47.169197,60.969929,0.073946,0.000971,0.945056,0.032261,-0.014938,0.003624,0
11/11/2017 21:35:53.245272,32.059,37.999,1033.480,110.350223,354.737574,347.269835,8.427811,-47.143700,61.064632,0.072491,0.002914,0.934334,0.021102,0.015689,-0.017821,0
11/11/2017 21:35:53.410626,32.059,38.188,1033.491,108.281741,354.851017,348.516727,8.702378,-47.247452,61.006496,0.052368,0.007041,0.929947,0.004850,0.026006,-0.001516,0
11/11/2017 21:35:53.572282,32.024,38.689,1033.485,106.287599,355.137647,349.429568,8.862233,-47.210735,60.934452,0.061581,0.000728,0.947006,-0.017464,0.017036,-0.012156,0
11/11/2017 21:35:53.737739,32.095,37.653,1033.482,104.514653,355.204565,350.292754,8.634676,-47.022858,61.060223,0.059642,0.001214,0.943838,-0.003369,0.001007,0.011849,0
11/11/2017 21:35:53.899310,32.112,37.275,1033.481,103.091932,355.174680,350.904120,8.428263,-46.780346,60.696754,0.053338,0.001214,0.949443,-0.032100,-0.007007,0.006061,0
11/11/2017 21:35:54.064475,32.077,38.530,1033.483,101.649450,355.397927,351.613075,8.550785,-47.289257,60.500237,0.064976,-0.003618,0.944569,0.040405,0.041673,-0.016113,0
11/11/2017 21:36:00.010677,32.166,36.962,1033.484,233.864124,18.759710,0.567120,6.748257,-42.654072,60.358086,-0.069608,0.049772,0.997695,-0.128500,-0.088747,0.890411,2
11/11/2017 21:36:00.177165,32.059,38.331,1033.472,257.568165,18.956215,5.080424,6.084210,-38.547489,59.973858,0.001940,0.045645,0.945544,0.078889,0.092985,0.749607,2
11/11/2017 21:36:00.342661,32.095,38.347,1033.468,279.726016,18.181906,12.215898,6.475673,-38.596584,59.971825,0.061096,0.052686,0.859762,0.283529,0.048087,0.947832,2
11/11/2017 21:36:00.504587,32.059,38.401,1033.478,302.626957,14.182028,17.793922,7.127822,-39.836819,59.913006,0.076370,-0.017127,0.972350,0.052316,0.063664,1.059926,2
11/11/2017 21:36:00.670304,31.917,38.215,1033.467,318.147599,9.170022,20.451811,7.988869,-42.056957,59.937424,0.097706,0.084006,0.928241,0.081027,0.018765,1.357417,2
11/11/2017 21:36:00.832135,32.041,38.557,1033.467,341.194572,2.443178,22.584468,8.366834,-45.446404,60.543568,0.096736,-0.004342,0.932140,0.056287,0.090847,1.596877,2
11/11/2017 21:36:00.997981,32.077,38.088,1033.476,4.247258,354.744114,20.634481,7.851012,-50.057762,61.281693,0.105706,-0.080328,1.047653,0.031242,-0.061869,1.793881,2
11/11/2017 21:36:01.168632,32.095,38.125,1033.474,26.187695,347.231961,16.744067,5.817692,-54.962410,61.610199,0.051156,-0.094319,0.928729,0.039794,-0.155331,1.782580,2
11/11/2017 21:36:01.334106,32.024,38.474,1033.473,43.854934,344.452804,12.681523,3.453544,-59.581108,61.729546,0.048974,0.060698,0.900947,0.250237,0.110395,1.089859,2
11/11/2017 21:36:01.496012,31.988,38.135,1033.457,57.962563,343.785020,9.732165,0.376343,-62.614510,61.933521,0.005819,-0.039320,0.972838,0.161050,0.057861,1.050152,2
11/11/2017 21:36:01.661584,32.148,38.291,1033.454,68.378998,346.049313,7.743679,-3.452417,-64.353127,62.915432,0.112010,0.109985,0.827595,0.481144,0.379176,0.858035,2
11/11/2017 21:36:01.823676,32.041,38.341,1033.455,82.048850,346.748641,4.628570,-8.170013,-64.732910,63.701828,0.070794,-0.066820,0.999157,0.072170,-0.015443,1.033353,2
11/11/2017 21:36:01.990577,32.059,38.108,1033.460,95.286248,346.664998,0.417483,-11.937646,-64.903366,64.336151,0.140861,0.054871,1.031812,-0.038092,-0.137616,1.259068,2
11/11/2017 21:36:02.152671,32.006,38.334,1033.458,107.353778,346.529884,358.737250,-15.352482,-64.645607,64.970436,0.082674,0.042246,0.858300,-0.006021,-0.017581,1.203479,2
11/11/2017 21:36:02.318480,32.112,38.068,1033.452,120.408326,347.555729,356.690071,-19.140261,-63.475834,64.942070,0.100373,-0.076951,1.032056,-0.048476,-0.086304,1.558087,2
11/11/2017 21:36:02.487932,32.130,38.364,1033.460,134.905908,349.603687,352.792407,-22.849972,-61.233486,65.388245,0.018426,-0.070679,0.958216,0.035823,0.110395,1.526933,2
11/11/2017 21:36:02.653744,31.988,39.450,1033.460,144.846101,353.288147,351.178742,-26.293428,-58.513878,65.425140,0.016001,-0.027741,0.998913,0.101491,0.136357,0.992120,2
11/11/2017 21:36:02.822610,31.988,38.457,1033.471,150.357845,355.065402,352.722995,-28.736490,-55.810539,65.217125,-0.008639,0.000971,0.922880,0.277420,0.013878,0.724561,2
11/11/2017 21:36:02.984555,32.041,37.597,1033.462,154.474509,355.568492,354.889631,-29.992077,-52.242733,64.693993,-0.027646,0.059241,0.944082,0.001004,0.079852,0.772819,2
11/11/2017 21:36:03.150257,32.077,38.513,1033.460,158.320247,357.751741,358.406627,-30.621159,-48.856812,64.478127,0.109586,0.107314,0.849284,0.299411,0.091458,0.893771,2
11/11/2017 21:36:03.312094,32.059,38.364,1033.466,164.516622,358.170985,359.922024,-31.180847,-45.723274,64.138527,0.103282,0.093232,0.937502,0.135700,0.105203,0.930423,2
11/11/2017 21:36:03.477708,32.024,38.178,1033.459,171.437898,357.912287,0.534703,-31.411098,-42.107586,63.846027,0.103040,0.084249,0.888762,0.146390,0.034953,1.122845,2
11/11/2017 21:36:03.639773,32.006,38.181,1033.463,179.294679,358.781924,0.721813,-30.859268,-38.558147,63.982208,0.097463,0.065797,0.944813,0.013527,0.261584,1.377576,2
11/11/2017 21:36:03.805253,32.112,38.666,1033.464,188.487256,359.782374,0.704238,-29.596083,-35.447937,63.941124,0.040246,0.039090,0.875846,-0.030761,0.177896,1.302440,2
11/11/2017 21:36:03.967570,32.095,38.560,1033.466,196.338982,0.658568,359.668404,-27.635649,-32.911472,63.639164,-0.042949,-0.048969,0.945056,-0.147436,0.020598,1.407508,2
11/11/2017 21:36:04.133106,32.112,38.557,1033.472,201.248235,1.604706,359.523958,-24.765028,-31.263500,63.501247,-0.011601,0.011168,0.966745,0.134172,0.046254,0.895603,2
11/11/2017 21:36:04.295182,32.130,38.716,1033.468,204.935240,1.329419,1.100336,-22.226994,-29.517843,63.014194,-0.044677,-0.025087,0.932872,0.179682,-0.081111,1.075503,2
11/11/2017 21:36:04.460846,32.024,38.434,1033.466,207.561065,1.319095,1.731011,-18.638878,-27.789949,62.389721,0.028609,-0.047763,1.111989,-0.234485,0.152850,0.857730,2
11/11/2017 21:36:04.623021,32.095,34.631,1033.472,209.612348,1.125401,1.157600,-15.446248,-27.046347,61.839203,0.058672,0.048559,0.895099,-0.053669,-0.056371,0.877888,2
11/11/2017 21:36:04.788930,32.077,38.317,1033.468,209.431635,1.318469,0.800488,-12.920021,-26.933138,61.934692,0.080007,0.062640,0.939939,-0.024042,0.118031,0.587422,2
11/11/2017 21:36:04.958094,32.148,38.570,1033.472,210.069684,1.094060,1.186748,-10.077963,-27.474409,61.947453,0.042428,0.064583,0.906309,0.128064,-0.010862,0.991815,2
11/11/2017 21:36:05.123570,32.077,38.670,1033.475,213.571044,359.524456,0.391709,-7.014065,-28.510489,61.613655,0.061824,-0.109034,1.066905,-0.065886,-0.198092,1.171409,2
11/11/2017 21:36:05.285678,32.201,39.237,1033.475,216.423099,359.608422,358.843701,-3.395306,-30.078922,61.472336,0.014789,-0.022193,0.973813,-0.196611,0.001355,1.203785,2
11/11/2017 21:36:05.451415,32.237,38.244,1033.474,216.273627,359.708290,358.324609,-0.276297,-32.375214,61.599201,0.016729,0.013354,0.960409,0.122261,-0.028577,0.782899,2
11/11/2017 21:36:05.613491,32.112,38.175,1033.482,220.747674,359.132518,358.849539,2.241977,-34.302937,61.340763,-0.007158,-0.001689,0.939695,0.088968,-0.029799,0.765489,2
11/11/2017 21:36:05.779154,32.112,38.234,1033.488,244.743577,0.456835,358.894581,4.040271,-36.401215,61.518105,0.067400,0.053657,0.918981,0.278642,0.305872,0.700126,2
11/11/2017 21:36:05.941167,32.006,38.490,1033.494,253.290841,1.095291,359.810152,5.019373,-38.048717,61.727581,0.129224,-0.015197,0.932384,0.316821,-0.050568,0.887662,2
11/11/2017 21:36:09.960235,32.201,38.311,1033.483,221.583307,5.057942,357.993480,5.184834,-44.771488,62.446716,0.127769,0.024036,0.918006,0.022054,0.062868,-0.178068,3
11/11/2017 21:36:10.139602,32.095,38.517,1033.489,207.948337,3.835408,357.189235,5.120954,-51.196358,62.659969,0.110555,-0.012544,0.961140,0.047710,-0.054112,-0.518625,3
11/11/2017 21:36:10.307998,32.112,38.484,1033.491,199.148663,2.750402,356.611672,5.630799,-52.987431,62.676506,0.030306,0.039575,0.918250,-0.032008,-0.078241,-0.828029,3
11/11/2017 21:36:10.472967,32.183,38.809,1033.488,207.508664,4.163099,356.135755,6.388929,-52.157200,63.094418,0.012122,0.036904,0.905821,0.008310,0.076918,-1.274877,3
11/11/2017 21:36:10.651886,32.112,38.188,1033.491,209.697658,4.355049,355.894414,7.047815,-48.684200,62.808594,0.107646,-0.048969,1.004518,-0.075379,0.007891,-1.857337,3
11/11/2017 21:36:10.820284,32.095,38.699,1033.498,205.838969,3.517624,354.379132,6.808207,-44.126823,62.182182,0.040731,-0.014232,0.890956,-0.128830,-0.064802,-1.675604,3
11/11/2017 21:36:10.988802,32.148,38.533,1033.494,202.940060,1.962632,352.400658,5.429855,-39.962822,61.671215,0.115162,-0.004825,1.005493,-0.098592,-0.104509,-1.193021,3
11/11/2017 21:36:11.157181,32.130,37.965,1033.488,183.406907,358.532766,353.173770,3.172019,-35.447781,61.678257,0.112980,0.045402,0.922149,0.093525,-0.065413,-1.136210,3
11/11/2017 21:36:11.325641,32.059,38.729,1033.492,167.047808,356.163672,356.327897,1.082988,-32.342144,61.605175,0.090432,0.037390,0.887300,0.013197,-0.062359,-0.956921,3
11/11/2017 21:36:11.494391,32.059,38.935,1033.494,151.914609,354.906139,357.207197,-1.062337,-30.234318,61.367886,0.015517,-0.022193,0.903384,-0.208548,-0.087404,-1.093144,3
11/11/2017 21:36:11.666424,32.024,38.414,1033.492,135.746076,354.910557,356.569335,-4.549225,-28.640265,61.110527,0.013092,0.008012,0.935065,-0.170368,0.104102,-1.308474,3
11/11/2017 21:36:11.838572,32.059,38.168,1033.490,120.424855,355.548316,357.081832,-9.036208,-28.147530,61.402351,0.010668,-0.048245,0.935796,0.013502,0.083943,-1.419346,3
11/11/2017 21:36:12.014104,32.041,38.331,1033.484,105.182707,356.247415,357.978322,-13.724300,-28.078638,61.387970,0.099888,-0.050657,0.889493,-0.006046,0.117235,-1.515863,3
11/11/2017 21:36:12.182609,31.988,38.670,1033.481,94.251044,355.117624,358.357581,-18.592482,-29.181656,61.924305,0.128011,-0.045350,0.992577,-0.079960,-0.074882,-1.272433,3
11/11/2017 21:36:12.351040,32.077,33.482,1033.485,87.631341,353.924933,359.814137,-22.665018,-30.980270,62.233707,0.072491,0.044188,0.917762,0.155834,-0.072133,-0.935541,3
11/11/2017 21:36:12.519144,32.166,37.972,1033.479,84.069684,352.991292,0.922380,-25.723627,-33.120399,63.009045,0.088493,-0.043179,0.937502,-0.015514,-0.208356,-0.719295,3
11/11/2017 21:36:12.687338,32.059,38.364,1033.472,80.145433,353.050088,1.854406,-27.914331,-35.023216,63.221455,-0.006911,0.005099,0.814435,0.053514,-0.051058,-0.794737,3
11/11/2017 21:36:12.862643,32.077,38.238,1033.466,75.466917,353.755044,359.832752,-29.240746,-36.899628,63.322685,-0.024190,-0.057412,0.954804,-0.125775,0.172824,-1.177444,3
11/11/2017 21:36:13.032001,32.059,38.361,1033.467,69.201940,354.381363,359.130372,-30.380280,-40.013844,63.615086,0.051883,-0.013509,0.998670,-0.048806,-0.155516,-1.207987,3
11/11/2017 21:36:13.204383,32.059,37.922,1033.467,59.870658,354.622163,359.209941,-31.157703,-44.428070,64.096306,0.105706,-0.057412,0.908746,0.118265,0.213752,-1.613907,3
11/11/2017 21:36:13.376471,32.148,35.166,1033.469,50.964112,353.813985,0.150665,-31.284740,-48.814430,64.510849,0.167530,-0.049210,0.946275,-0.153570,-0.062970,-1.472492,3
11/11/2017 21:36:13.548569,32.077,38.367,1033.458,46.286986,353.107398,0.700421,-29.992704,-53.008842,64.513504,0.083886,-0.000482,0.944813,0.033966,-0.014101,-1.007012,3
11/11/2017 21:36:13.720553,32.059,38.155,1033.458,41.606186,353.971795,1.537364,-28.079803,-56.701778,64.259590,0.103767,-0.006513,0.977712,-0.175561,0.054622,-0.937068,3
11/11/2017 21:36:13.888699,32.006,38.161,1033.459,39.775210,354.277267,1.879841,-25.748154,-59.443501,64.339760,0.039761,0.014810,0.994283,-0.112336,0.054622,-0.740369,3
11/11/2017 21:36:14.057180,32.024,38.095,1033.462,39.393300,354.224462,2.443155,-23.469341,-61.335197,64.702553,-0.000247,0.037876,0.880720,0.021138,-0.095651,-0.635606,3
11/11/2017 21:36:14.229298,32.006,37.975,1033.467,37.679350,354.825062,2.129926,-21.508373,-62.704857,64.859642,0.013577,0.025736,0.910451,-0.025899,0.209171,-0.924545,3
11/11/2017 21:36:14.401836,31.988,38.503,1033.463,33.517319,355.865971,2.502276,-19.105431,-63.839569,64.806847,0.056490,-0.012544,0.956510,0.142395,-0.025096,-1.207681,3
11/11/2017 21:36:14.574391,32.041,38.291,1033.460,26.448728,356.917320,4.161611,-15.634019,-65.084114,64.562042,0.080007,-0.036666,0.889981,-0.180142,-0.008297,-1.186912,3
11/11/2017 21:36:14.750326,32.059,38.108,1033.466,21.104511,356.756103,3.558151,-11.943298,-65.227226,64.279984,0.164621,-0.031842,0.955535,-0.133717,0.005752,-1.226313,3
11/11/2017 21:36:20.793099,32.148,38.151,1033.459,348.771230,349.466843,13.340564,-3.737533,-63.322407,62.339016,0.103767,-0.033530,1.083232,-0.035632,0.011513,-0.160011,2
11/11/2017 21:36:20.962679,32.041,38.135,1033.463,327.111171,353.951333,18.724465,3.150962,-60.650188,60.941517,0.104979,-0.012303,0.911670,0.124720,0.254027,-0.153291,2
11/11/2017 21:36:21.131950,32.024,39.224,1033.460,315.205249,357.643297,21.229596,5.713323,-58.821239,61.115726,0.068855,0.020395,0.796645,0.063476,0.058163,0.075645,2
11/11/2017 21:36:21.297620,32.130,38.115,1033.463,326.254870,355.795088,20.620035,6.743429,-57.598804,60.986397,0.047762,0.077451,0.915325,0.049352,0.081558,0.140396,2
11/11/2017 21:36:21.466823,32.059,38.826,1033.467,339.599910,352.741477,18.461911,6.793877,-57.156555,61.082859,-0.017032,-0.141600,1.291106,-0.426817,-0.293818,0.494698,2
11/11/2017 21:36:21.636146,32.112,38.743,1033.458,352.583913,347.818682,13.883698,6.450062,-57.721447,60.951717,-0.084665,-0.138946,0.997695,0.079285,-0.199134,0.683149,2
11/11/2017 21:36:21.801858,31.988,41.768,1033.464,6.868220,344.650803,11.474818,6.405370,-58.366055,60.258266,-0.082690,-0.023881,0.821015,0.185270,-0.213184,0.833728,2
11/11/2017 21:36:21.970930,32.095,38.258,1033.462,22.594966,343.155439,9.106863,6.157960,-59.494049,59.964272,-0.003703,-0.174648,1.136358,-0.180639,0.157917,1.118086,2
11/11/2017 21:36:22.140273,32.059,38.082,1033.463,42.979580,342.404488,3.779834,3.887465,-61.496490,60.430740,0.053338,-0.078398,0.898267,0.203596,0.012836,1.715206,2
11/11/2017 21:36:22.305921,32.095,38.387,1033.466,66.658651,343.464033,358.975761,0.643976,-63.869709,61.701767,0.014789,-0.148836,0.833931,0.321798,0.190598,2.279035,2
11/11/2017 21:36:22.475012,32.077,38.291,1033.466,94.242103,345.699872,348.947239,-4.845078,-65.916016,63.173187,0.099160,-0.358220,1.200938,-0.127188,-0.315199,2.514523,2
11/11/2017 21:36:22.636903,32.024,38.474,1033.469,113.718401,351.044840,345.006543,-12.332118,-67.684547,64.050819,-0.065165,-0.074780,0.904115,0.179772,0.209535,1.779653,2
11/11/2017 21:36:22.802648,32.095,38.155,1033.478,128.549638,357.387516,346.467257,-20.684120,-65.856529,64.292595,-0.069361,-0.109034,0.936040,0.210010,0.062622,1.859065,2
11/11/2017 21:36:22.964666,32.095,38.102,1033.473,142.337796,1.964930,348.399694,-27.245157,-61.395439,63.506622,0.026184,-0.084670,1.032056,-0.030977,0.149059,1.565239,2
11/11/2017 21:36:23.130409,32.024,37.271,1033.467,154.910056,3.727005,352.144623,-31.435860,-54.926575,62.800468,0.138679,0.001942,0.922393,0.390826,-0.076656,1.341662,2
11/11/2017 21:36:28.032524,32.059,37.856,1033.466,189.392079,358.968448,309.128000,-21.316185,-44.826725,61.251869,0.132133,0.050015,0.935796,-0.032556,-0.050087,0.121432,1
11/11/2017 21:36:28.188492,32.130,38.108,1033.472,185.538609,357.050796,312.017054,-9.872476,-37.589935,60.739986,0.128254,0.068468,0.900704,-0.017895,0.043681,0.157779,1
11/11/2017 21:36:28.349394,32.112,38.567,1033.475,182.700515,357.152670,312.226980,-4.949099,-35.019615,59.524136,0.070309,-0.128573,1.252846,-0.168473,-0.183867,0.277508,1
11/11/2017 21:36:28.515788,32.112,37.690,1033.469,177.579249,356.394773,316.739979,-2.302553,-34.716881,58.264187,0.000485,-0.070679,1.001838,0.473546,-0.113006,0.175494,1
11/11/2017 21:36:28.686095,32.024,45.176,1033.475,172.119551,354.701932,321.161253,-0.728188,-33.309193,56.919884,0.049701,0.028892,0.789821,0.059115,-0.062125,-0.363077,1
11/11/2017 21:36:28.852527,32.077,37.979,1033.479,164.204632,350.868603,325.076307,-0.149892,-32.157135,56.252651,0.075886,0.080364,0.952367,0.267726,-0.058154,-0.402783,1
11/11/2017 21:36:29.019702,31.935,37.985,1033.473,154.685821,348.843868,325.844833,-0.786401,-30.625013,55.232933,0.102555,-0.003618,1.169014,-0.151633,0.429622,-0.672175,1
11/11/2017 21:36:29.179617,31.722,37.364,1033.484,147.268851,346.578581,330.393261,-2.444030,-29.008375,54.733356,0.102555,-0.041491,0.847821,0.125089,-0.020540,-0.084603,1
11/11/2017 21:36:29.339395,31.899,37.706,1033.489,145.074475,347.369196,333.668292,-4.018229,-27.480881,54.641899,0.012850,0.145676,0.731334,-0.127199,0.053985,0.321622,1
11/11/2017 21:36:29.509914,31.953,38.198,1033.493,144.536037,351.024984,336.301612,-4.775712,-26.985476,54.684048,-0.003949,0.066282,1.006468,0.082023,0.216781,0.754726,1
11/11/2017 21:36:29.676296,31.846,37.537,1033.498,145.104323,354.039686,339.398312,-4.559881,-27.869265,55.953003,0.018426,-0.008443,0.875846,0.122034,-0.127136,0.631025,1
11/11/2017 21:36:29.842953,32.059,38.743,1033.493,144.686998,353.867285,341.733607,-3.250274,-28.372675,56.433189,0.040246,0.024279,0.715007,0.137611,-0.155236,0.205863,1
11/11/2017 21:36:30.002863,31.917,37.909,1033.491,142.263060,352.268667,342.474856,-1.857976,-28.076904,56.299782,0.059157,0.035691,0.889006,0.021208,-0.087073,0.019157,1
11/11/2017 21:36:33.317511,31.988,38.085,1033.460,120.073769,7.274262,342.988669,-11.455329,-30.596603,58.207359,0.072006,0.045402,0.918250,-0.323320,-0.075467,0.034429,1
11/11/2017 21:36:33.480261,32.024,37.683,1033.461,120.432423,5.989413,343.129276,-22.270720,-33.915104,60.245239,0.093827,0.088619,0.838561,-0.122944,0.047449,-0.038823,1
11/11/2017 21:36:33.649303,31.988,37.700,1033.461,121.421707,5.285931,343.577450,-26.175152,-36.383797,61.657333,0.097221,-0.026052,1.049602,-0.012859,0.033729,0.115219,1
11/11/2017 21:36:33.810836,32.077,37.334,1033.469,124.209654,3.256462,345.063116,-27.557060,-37.397816,62.510143,0.103767,-0.189845,1.081283,0.377484,-0.017583,-0.104387,1
11/11/2017 21:36:33.975861,32.041,37.637,1033.468,127.259415,2.579445,348.870113,-27.712067,-37.167274,62.256954,0.030306,-0.092390,0.861468,0.171623,-0.181906,0.404769,1
11/11/2017 21:36:34.144281,32.006,37.650,1033.463,129.476945,2.832476,350.066994,-27.436333,-35.707821,62.562092,0.032003,0.031563,0.746931,-0.142667,0.146128,0.002515,1
11/11/2017 21:36:34.305540,32.041,37.647,1033.465,127.850691,3.223046,350.050325,-27.058550,-35.141209,62.675972,0.081462,0.057785,1.051064,0.124281,0.023955,-0.329491,1
11/11/2017 21:36:34.466890,31.970,37.872,1033.461,122.819656,3.893606,356.268351,-27.604572,-35.249229,62.399410,0.153226,-0.033048,0.908746,0.473085,0.170258,-0.462965,1
11/11/2017 21:36:34.631950,31.953,37.753,1033.460,120.260876,2.746945,0.836800,-28.691938,-35.519352,62.075134,0.062551,-0.019781,0.627276,0.173543,-0.043414,-0.023654,1
11/11/2017 21:36:34.790044,31.953,38.995,1033.464,120.626127,2.502351,1.264257,-29.168982,-35.127846,61.494484,0.067400,0.065311,0.774712,-0.184456,0.136548,-0.068173,1
11/11/2017 21:36:34.958574,31.953,38.208,1033.455,123.609034,2.846110,1.229243,-29.640318,-35.169197,60.925400,0.033700,-0.050657,1.343501,-0.718352,-0.255322,0.573541,1
11/11/2017 21:36:35.126984,31.970,37.819,1033.445,125.512362,2.464072,0.707023,-30.059477,-35.253124,61.007511,0.000242,-0.156073,1.025720,0.154761,-0.114359,0.109947,1
11/11/2017 21:36:35.288383,32.024,37.537,1033.437,127.602960,359.821068,1.209042,-29.665964,-34.852478,61.816513,0.042428,0.000728,0.680889,0.169008,-0.189814,-0.108270,1
11/11/2017 21:36:35.449832,31.988,37.510,1033.435,126.983940,358.756322,1.757356,-28.719870,-34.354774,62.244259,0.075158,-0.000241,1.019628,0.118420,-0.046384,-0.130775,1
11/11/2017 21:36:35.614746,31.899,37.949,1033.445,124.032875,1.448855,2.001207,-27.999416,-34.379379,62.134796,0.128739,-0.000000,1.042535,0.605890,0.271877,-0.383368,1
11/11/2017 21:36:35.775928,31.882,37.500,1033.447,124.179669,1.844385,4.357198,-28.489597,-34.135067,61.878174,0.072491,0.005584,0.696973,0.235401,0.048300,0.045765,1
11/11/2017 21:36:35.941025,31.882,37.839,1033.455,126.438085,2.342380,4.814536,-29.081993,-33.226734,61.530678,0.077825,0.105372,0.778611,0.028928,0.195824,0.298969,1
11/11/2017 21:36:39.465815,31.988,37.484,1033.476,76.824206,0.507435,345.873214,-17.440704,-44.045021,60.957359,0.096978,0.025250,1.000863,-0.292387,-0.127018,-0.035785,1
11/11/2017 21:36:39.631445,32.024,37.079,1033.479,78.015281,359.614337,346.378594,-4.692513,-55.721287,59.680107,0.082917,0.106100,0.857569,0.026966,-0.032413,-0.154782,1
11/11/2017 21:36:39.793202,31.988,37.690,1033.485,79.513203,358.952275,350.724643,1.095119,-60.345730,59.152782,0.019396,-0.036908,1.237005,-0.123917,-0.446274,0.358651,1
11/11/2017 21:36:39.959262,31.899,37.530,1033.500,83.052238,357.814541,353.010820,2.933387,-61.972378,59.058990,-0.014563,-0.092390,0.887544,0.138755,-0.079144,0.174169,1
11/11/2017 21:36:40.121056,31.882,37.647,1033.503,85.205961,356.826020,353.937064,4.331257,-62.576836,58.963955,0.051883,0.027921,0.766183,-0.041106,-0.078439,0.126776,1
11/11/2017 21:36:40.286285,31.935,37.411,1033.505,84.572420,356.416262,353.662072,5.037667,-62.922207,58.893517,0.117829,0.007769,1.036199,0.123827,0.025103,-0.379936,1
11/11/2017 21:36:40.448181,32.024,37.667,1033.507,83.311089,358.413524,353.039265,5.953779,-62.923374,58.505962,0.097948,-0.128573,0.987703,0.737747,0.231880,-0.448659,1
11/11/2017 21:36:40.613385,32.041,36.487,1033.509,81.076743,359.364177,353.332337,6.466123,-61.804031,59.289345,0.062066,-0.050899,0.792990,0.075264,-0.033846,-0.148724,1
11/11/2017 21:36:40.777133,32.024,37.736,1033.510,82.359357,359.107071,354.135784,6.873236,-60.991329,59.475002,0.061581,0.078665,0.760090,-0.177783,-0.061793,0.204982,1
11/11/2017 21:36:40.948717,32.059,39.470,1033.507,85.509570,359.498911,354.268279,6.974037,-61.201614,58.772976,0.085099,-0.043903,1.215804,-0.363181,-0.089282,0.450855,1
11/11/2017 21:36:41.111468,32.041,37.574,1033.507,86.332027,359.913626,355.398224,6.781928,-61.929092,58.206463,0.026427,-0.122543,0.986241,0.091303,-0.121963,0.259044,1
11/11/2017 21:36:41.278527,31.988,38.454,1033.500,87.400255,359.093299,355.646591,6.785148,-62.095695,57.898994,0.062066,0.022580,0.715738,0.070157,0.026535,-0.228196,1
11/11/2017 21:36:41.444967,32.024,37.623,1033.497,85.683664,358.530933,355.789291,6.832260,-62.122631,58.107761,0.096978,-0.003860,1.048628,0.278462,-0.045241,-0.344566,1
11/11/2017 21:36:41.608558,32.006,37.760,1033.490,81.548818,358.879557,0.231629,7.190169,-61.730160,58.204044,0.105706,0.050015,0.886569,0.494098,0.135575,-0.248049,1
11/11/2017 21:36:41.774909,31.935,37.630,1033.494,79.668597,0.258223,2.876996,7.304868,-60.160435,58.910034,0.029821,0.029378,0.695511,0.166674,0.068379,-0.053488,1
11/11/2017 21:36:41.941521,32.024,37.716,1033.490,81.449658,0.560384,4.440023,7.263664,-59.043022,58.905735,0.085099,0.077936,0.914838,-0.114630,0.059522,0.349683,1
11/11/2017 21:36:44.418174,32.024,35.385,1033.483,85.179617,2.441815,346.889486,-4.442643,-61.166866,58.665394,0.089947,0.033991,0.954317,-0.278545,-0.033598,-0.144938,1
11/11/2017 21:36:44.587539,32.024,37.540,1033.493,86.665736,1.853309,346.037182,-16.173569,-64.479973,57.802536,0.109828,0.067011,0.867317,-0.218986,0.073914,-0.023987,1
11/11/2017 21:36:44.749476,32.041,37.660,1033.492,88.361508,2.285269,347.808368,-20.796892,-66.323685,56.265709,0.073946,-0.050899,1.101266,0.375691,0.189062,0.211196,1
11/11/2017 21:36:44.914720,32.024,37.334,1033.498,90.305387,2.661102,350.462139,-23.474169,-66.736870,56.282539,0.070552,-0.150525,0.965771,0.338429,0.087658,-0.173649,1
11/11/2017 21:36:45.076502,31.988,37.829,1033.506,92.850719,1.536532,353.176481,-24.740591,-66.041710,56.657265,0.026911,-0.038355,0.821015,0.117906,-0.125839,0.319625,1
11/11/2017 21:36:45.241896,32.024,37.391,1033.490,93.831049,2.022992,354.452488,-24.810509,-65.081886,57.236965,0.040973,0.037147,0.827107,-0.008543,0.168293,-0.195334,1
11/11/2017 21:36:45.403740,31.988,37.301,1033.486,92.751011,1.875629,356.979416,-24.547215,-64.083160,57.223431,0.041701,0.016267,1.006955,0.231527,-0.086133,-0.294905,1
11/11/2017 21:36:45.568952,32.024,37.577,1033.487,90.710438,1.737674,3.269645,-24.213972,-63.283306,56.605026,0.082917,0.001700,0.860737,0.109965,-0.086744,-0.052086,1
11/11/2017 21:36:45.737785,32.077,37.660,1033.493,92.647029,1.539857,5.755876,-24.144903,-61.889107,56.583019,0.010668,0.051472,0.620940,0.105384,0.074219,0.162938,1
11/11/2017 21:36:45.899509,31.970,37.275,1033.487,97.260712,1.420163,5.541532,-24.730402,-60.684387,57.074615,0.083159,0.030592,0.985266,-0.062299,0.129197,0.416142,1
11/11/2017 21:36:46.065604,31.970,38.175,1033.465,104.791344,359.985310,359.875612,-25.825983,-60.267895,57.055912,-0.010861,-0.260042,1.395164,-0.152707,-0.043067,0.026410,1
11/11/2017 21:36:46.227517,32.006,41.592,1033.463,108.281017,357.853409,357.848708,-26.577074,-60.292660,57.116394,0.012850,-0.158727,0.874628,0.158529,-0.336588,0.308324,1
11/11/2017 21:36:46.392753,32.041,37.517,1033.463,108.854637,358.017418,358.300414,-26.659380,-59.573856,57.844975,-0.011108,0.045159,0.696729,-0.080014,0.187840,-0.093320,1
11/11/2017 21:36:46.561556,31.970,37.490,1033.463,108.095503,358.163664,358.606855,-26.831573,-59.353214,58.738148,0.047277,0.061669,1.043754,0.256878,-0.021687,-0.279634,1
11/11/2017 21:36:46.723241,31.988,37.241,1033.471,105.929616,358.574398,4.258082,-27.277678,-59.756851,59.357117,0.081704,0.000971,0.828082,0.264514,0.109344,-0.130583,1
11/11/2017 21:36:46.888534,32.059,37.607,1033.473,106.666258,358.396873,7.663080,-27.512480,-60.036034,59.872150,0.035397,-0.023640,0.691124,0.317048,-0.016494,0.157440,1
11/11/2017 21:36:47.050477,32.006,37.344,1033.463,109.652663,357.553629,9.484764,-27.824467,-59.737411,60.783844,0.061096,0.049530,0.841973,-0.022898,0.042760,0.399343,1
11/11/2017 21:36:56.573346,32.059,37.437,1033.464,267.692411,336.275094,1.500848,-18.316824,-49.000839,62.304367,0.099160,-0.010131,0.937014,0.099275,-0.003361,1.138795,2
11/11/2017 21:36:56.742861,32.024,37.560,1033.469,269.063818,336.645838,358.777636,-6.511228,-38.726486,63.565231,0.112495,0.023308,0.859275,0.053155,0.000915,1.528833,2
11/11/2017 21:36:56.911831,32.024,37.202,1033.460,272.543136,337.762702,354.834550,0.777909,-37.146542,63.856255,0.118071,-0.051864,0.980880,0.197013,0.115758,1.657420,2
11/11/2017 21:36:57.073735,31.953,37.218,1033.461,275.722822,340.208280,351.251890,5.088969,-39.674107,63.873314,0.110313,-0.098420,0.926292,0.179909,0.137138,1.792421,2
11/11/2017 21:36:57.239221,32.095,37.567,1033.468,292.500253,344.064443,345.312469,7.240338,-43.971458,64.230148,0.000727,-0.140152,0.986485,-0.037864,-0.090714,1.746301,2
11/11/2017 21:36:57.401310,31.970,37.125,1033.465,314.771703,349.846126,342.650683,7.590547,-48.916454,64.588333,-0.029620,-0.059583,0.897535,0.095610,0.090713,1.124745,2
11/11/2017 21:36:57.566827,31.988,37.507,1033.474,335.067344,354.774977,342.317665,6.780128,-53.280453,64.632072,-0.002222,-0.087565,0.939208,0.114241,-0.045205,1.085650,2
11/11/2017 21:36:57.728800,31.970,38.161,1033.477,343.953674,359.033721,342.827064,5.179128,-56.547260,64.525116,0.068127,0.017238,0.867561,0.137454,0.229990,0.890173,2
11/11/2017 21:36:57.894154,32.024,37.504,1033.481,341.118425,0.400378,341.854271,3.184505,-58.871143,65.061211,0.137952,-0.032083,0.987703,0.076062,-0.087355,1.109474,2
11/11/2017 21:36:58.056384,32.041,37.514,1033.480,331.900691,0.988232,339.831211,0.666621,-61.171295,65.182838,0.114677,0.016267,0.882183,0.062012,-0.071167,1.147958,2
11/11/2017 21:36:58.222015,32.006,37.105,1033.490,324.825769,1.637499,338.074263,-1.757887,-63.158264,66.072594,0.092614,-0.058859,0.951636,0.169219,-0.030850,1.240810,2
11/11/2017 21:36:58.383709,31.864,36.866,1033.488,320.223348,2.169114,337.808707,-4.627833,-65.100174,65.795395,0.163893,-0.069473,0.923124,0.093166,-0.116982,1.399329,2
11/11/2017 21:36:58.549307,32.006,37.560,1033.489,314.986816,5.387397,336.178940,-8.170765,-66.226906,66.142868,0.014547,-0.080087,0.994283,-0.112695,0.030237,1.468968,2
11/11/2017 21:36:58.711296,31.935,37.514,1033.485,306.604528,7.501899,338.126041,-12.116824,-67.451889,66.560318,0.039761,-0.007960,0.898023,0.320714,0.099876,1.075265,2
11/11/2017 21:36:58.876642,32.041,37.278,1033.480,300.918372,9.804643,340.413854,-16.514935,-66.219978,66.587532,-0.010861,-0.039802,0.894124,0.197930,0.080328,1.195606,2
11/11/2017 21:36:59.045697,32.095,37.520,1033.485,294.627583,12.742186,339.316369,-20.931740,-63.912289,66.660614,0.066430,-0.055241,0.964796,0.080338,0.244956,0.840693,2
11/11/2017 21:36:59.214821,31.970,37.464,1033.482,289.014411,13.977914,339.984858,-24.725420,-61.940208,66.484344,0.088735,0.012868,0.966014,0.055598,-0.040013,0.959812,2
11/11/2017 21:36:59.380626,32.059,37.481,1033.477,283.366603,14.561642,339.777989,-27.655802,-59.630165,66.694305,0.125102,0.028650,0.951880,-0.042140,0.022296,0.946373,2
11/11/2017 21:36:59.549947,31.988,37.637,1033.484,281.186755,15.959154,341.763754,-29.947363,-56.577740,66.830795,0.037822,0.027193,0.891443,0.233360,0.062918,1.424375,2
11/11/2017 21:36:59.712171,32.077,37.401,1033.471,282.168301,16.470146,347.099686,-31.466825,-52.473259,67.266289,0.018183,0.037390,0.844166,-0.116361,-0.051008,1.530055,2
11/11/2017 21:36:59.877684,32.006,37.378,1033.465,282.413183,17.642959,349.610519,-32.017536,-48.613247,67.659111,-0.029373,-0.055241,0.952855,0.130124,0.097738,1.260968,2
