DateTime, Latitude, Longitude, Temp, Humidity, Pressure, Yaw, Pitch, Roll, MagX, MagY, MagZ, AccX, AccY, AccZ, GyroX, GyroY, GyroZ, State
42:03.6,,,33.302,37.045,1018.872,171.709904,347.896521,5.735661,-5.422262,1.581421,33.805347,0.186683,0.051715,0.918493,-0.232957,-0.088266,0.018616,standing
42:03.9,32.90815949,-80.10055561,33.231,37.148,1018.865,172.784716,347.495284,4.372864,-10.698288,3.098655,68.779152,0.263054,0.044188,0.873653,-0.067204,0.022742,0.147437,standing
42:04.0,32.90815949,-80.10055561,33.266,37.361,1018.873,172.994458,348.075652,5.30217,-12.786705,4.034654,82.798531,0.171409,0.003885,0.972107,0.453559,-0.104623,-0.21725,standing
42:04.2,32.90815949,-80.10055561,33.337,37.7,1018.871,174.887349,347.42842,4.700155,-13.396505,6.37551,87.651169,0.236385,0.045888,0.875115,-0.224807,0.018161,0.013657,standing
42:04.4,32.90815949,-80.10055561,33.337,37.371,1018.889,175.472163,345.944486,4.110201,-12.200661,8.769547,87.554382,0.260629,0.040061,0.818578,-0.055061,-0.024005,-0.127858,standing
42:04.5,32.90815865,-80.10054507,33.32,37.079,1018.893,175.971819,347.525771,5.090227,-11.205194,10.674492,86.593666,0.20026,0.093475,0.925317,0.000222,0.202626,-0.011793,walking
42:04.7,32.90815865,-80.10054507,33.337,37.218,1018.879,178.584093,347.485445,4.400782,-11.436671,11.679115,85.513,0.221838,0.04346,0.919712,0.123311,-0.030113,0.219724,walking
42:04.9,32.90815865,-80.10054507,33.337,37.318,1018.867,181.172096,347.386419,5.017436,-11.800283,12.165601,85.83976,0.263781,0.083278,0.816628,0.120677,-0.044997,-0.051381,walking
42:05.0,32.90815865,-80.10054507,33.302,37.388,1018.865,179.91363,346.451814,6.302298,-12.185798,12.52812,86.249466,0.278085,0.035205,1.017678,0.21139,-0.231311,-0.369642,walking
42:05.2,32.90815865,-80.10054507,33.373,37.281,1018.853,178.461464,349.54735,7.876697,-13.036963,12.450783,86.725639,0.134073,0.144947,0.817847,0.182985,0.428424,-0.14576,walking
42:05.3,32.90815109,-80.10054507,33.266,37.185,1018.844,179.205244,353.128624,7.267415,-14.739322,12.669427,85.962845,0.080977,0.102216,1.023039,-0.201249,0.173998,0.156924,walking
42:05.5,32.90815109,-80.10054507,33.462,37.58,1018.826,182.212894,353.585796,6.406153,-16.110777,13.28103,86.10955,0.217232,0.143733,0.88072,0.131062,-0.165337,0.135238,walking
42:05.7,32.90815109,-80.10054507,33.355,36.949,1018.833,179.818964,350.20909,9.735879,-15.455947,13.757427,86.643036,0.282692,0.272656,0.863174,0.146639,-0.459469,-0.274347,walking
42:05.8,32.90815109,-80.10054507,33.355,37.743,1018.822,177.135273,349.324641,12.726083,-14.515613,14.957688,88.000809,0.161469,0.360304,0.90046,0.34914,0.095197,-0.067264,walking
42:06.0,32.90815109,-80.10054507,33.178,37.211,1018.829,175.181389,349.572039,15.738991,-14.095669,17.110283,89.122047,0.406582,0.428529,0.831006,0.385487,-0.038277,0.129435,walking
42:06.2,32.90815109,-80.10054507,33.266,37.278,1018.837,165.432113,348.172988,19.448552,-12.205337,18.574286,92.132759,0.241719,0.40692,0.92093,0.167103,0.177663,-0.354981,walking
42:06.3,32.90815109,-80.10054507,33.018,37.394,1018.841,162.441542,343.852067,18.723915,-9.380554,16.450926,92.8778,0.16947,0.031806,0.75278,-0.634964,0.060072,-0.693706,walking
42:06.5,32.90815109,-80.10054507,33.107,37.311,1018.851,158.290208,347.289853,16.114966,-10.494677,12.408836,91.513084,0.179895,0.165099,0.877309,-0.257754,0.027085,-0.97165,walking
42:06.7,32.90815109,-80.10054507,33,37.676,1018.858,151.092828,352.205644,13.636065,-13.541812,7.798337,89.508255,0.022063,0.147375,0.899972,-0.331669,0.188659,-1.331144,walking
42:06.8,32.90815109,-80.10054507,33.124,37.57,1018.857,140.007021,355.526903,12.269967,-16.05855,3.425293,88.498314,0.12195,0.243278,1.010367,-0.094042,-0.333325,-1.446597,walking
42:07.0,32.90815109,-80.10054507,33.053,37.049,1018.854,132.626974,356.274054,11.074524,-16.624884,-0.879849,88.226814,0.140861,0.059727,0.978199,-0.315481,-0.127769,-1.102986,walking
42:07.2,32.90815109,-80.10054507,33.142,37.467,1018.866,127.246534,356.229829,13.380486,-15.955777,-4.912785,88.799149,0.077583,0.035933,0.792015,0.319513,-0.767651,-0.727609,walking
42:07.3,32.90814625,-80.1005469,33.142,36.909,1018.864,122.680484,354.279891,11.884207,-13.684965,-7.911543,89.300789,0.16753,0.105129,0.856838,-0.559216,-0.439616,-0.67202,walking
42:07.5,32.90814625,-80.1005469,33.124,37.029,1018.867,118.927363,354.401302,9.165267,-10.433952,-10.741469,89.505997,0.137224,0.004856,0.94725,0.052565,0.07962,-0.701647,walking
42:07.7,32.90814625,-80.1005469,33.124,36.667,1018.866,118.594979,354.598407,8.174204,-7.947561,-13.376868,88.964806,0.099645,0.024279,0.993796,-0.068615,-0.207045,-0.263427,walking
42:07.9,32.90814625,-80.1005469,33,37.328,1018.867,118.501624,353.061855,9.472757,-5.871617,-15.126441,88.526566,0.104494,0.111927,0.752292,0.190087,-0.160008,0.246645,walking
42:08.0,32.90814625,-80.1005469,32.965,36.893,1018.875,122.413287,351.648581,11.240114,-4.060491,-15.382801,88.786446,0.073946,0.117269,0.915325,0.329975,-0.074487,0.734727,walking
42:08.2,32.90814625,-80.1005469,33.018,37.172,1018.875,124.731289,350.264414,8.326762,-3.471624,-14.805497,89.11087,0.110798,0.128437,1.006955,-0.412226,-0.144126,0.191362,walking
42:08.4,32.90814625,-80.1005469,33.053,37.168,1018.876,126.479872,348.817321,8.233031,-2.920047,-14.950791,88.849937,0.124617,0.100516,0.86025,0.300959,-0.182916,0.17609,walking
42:08.5,32.90814625,-80.1005469,33.124,37.085,1018.875,128.956348,350.265865,11.350269,-2.270153,-14.202263,88.921509,0.157347,0.000243,1.072266,0.117088,0.836313,0.912183,walking
42:08.7,32.90814625,-80.1005469,33.071,36.102,1018.879,141.347732,352.848129,11.102916,-4.037073,-12.089886,89.546387,0.263539,0.00607,0.952124,0.328142,0.553482,1.193486,walking
42:08.9,32.90814625,-80.1005469,33.035,36.607,1018.881,152.667036,352.98883,12.547752,-8.062847,-9.489193,89.855156,0.171894,0.128923,0.821989,0.384647,0.350064,0.797951,walking
42:09.0,32.90814625,-80.1005469,32.982,36.444,1018.881,161.485753,353.502233,13.616851,-12.322836,-6.356091,89.536621,0.115162,0.171169,0.899485,0.154962,0.138705,1.047795,walking
42:09.2,32.90814625,-80.1005469,32.982,36.8,1018.872,171.176903,353.342472,14.199612,-15.750024,-3.042472,89.783478,0.053338,0.181123,1.106871,-0.366106,0.536378,1.95829,walking
42:09.4,32.90814625,-80.1005469,33.018,36.431,1018.874,183.439391,351.360995,14.303334,-18.331318,0.982127,88.545891,0.010183,0.02695,0.856351,0.293018,-0.128243,1.293668,walking
42:09.5,32.90814625,-80.1005469,33.213,35.375,1018.872,192.021565,347.515303,13.044316,-19.436226,5.947559,87.797981,0.130678,0.214871,0.67504,-0.015469,-0.286457,1.051766,walking
42:09.7,32.90814625,-80.1005469,33,37.062,1018.863,196.798586,344.471423,9.965809,-18.322838,9.617109,87.854362,0.184744,0.197148,1.08372,-0.08633,0.109078,0.57468,walking
42:09.9,32.90814541,-80.10053636,33.035,37.029,1018.859,205.263745,350.253445,4.638984,-16.886662,12.089783,88.312325,0.21117,-0.157521,1.339358,0.565769,-0.029283,-0.010224,walking
42:10.1,32.90814541,-80.10053636,33.089,36.424,1018.852,208.19966,352.029846,8.412003,-16.384361,14.207494,87.689484,0.168742,0.038604,0.811267,0.385869,-0.385723,-0.080168,walking
42:10.2,32.90814541,-80.10053636,32.947,36.773,1018.854,206.351807,350.06174,11.154824,-15.339368,16.646729,87.308151,0.242203,0.27387,0.752536,-0.013213,-0.320754,0.177723,walking
42:10.4,32.90814541,-80.10053636,33,37.447,1018.85,203.086663,347.358834,13.860773,-13.838079,17.807152,87.762268,0.207776,0.273142,1.110039,0.438522,-0.398028,0.024701,walking
42:10.6,32.90814541,-80.10053636,32.965,36.703,1018.845,199.68333,346.369036,18.483472,-11.841307,18.569136,87.877914,0.193472,0.303734,0.699654,0.412561,-0.00738,-0.077619,walking
42:10.7,32.90814541,-80.10053636,32.858,36.65,1018.847,195.408956,345.971661,20.75147,-11.143682,19.56777,86.797699,0.244385,0.235023,0.548562,-0.055068,0.134727,-0.006068,walking
42:10.9,32.90814541,-80.10053636,32.982,36.404,1018.854,193.608259,346.758744,16.025774,-11.322271,19.94326,87.566353,0.144498,0.183308,0.915325,-0.353476,0.308213,-0.122743,walking
42:11.1,32.90814541,-80.10053636,32.84,36.547,1018.862,192.474543,350.924178,11.041144,-12.121119,18.941572,87.989861,0.21311,0.061669,1.397845,-1.244728,0.784382,-0.026532,walking
42:11.2,32.90814541,-80.10053636,32.734,36.172,1018.872,194.173744,356.957519,5.844954,-14.660127,16.81517,88.09697,0.067642,0.046373,0.979905,-0.060872,-0.007605,0.050437,walking
42:11.4,32.90815298,-80.10053636,32.822,36.863,1018.869,195.233803,357.499542,6.800432,-16.298603,15.041291,88.227654,0.198806,0.168984,0.758872,0.068021,0.124037,0.151841,walking
42:11.6,32.90815298,-80.10053636,32.858,36.441,1018.866,196.452609,357.86989,9.987979,-16.505957,14.674548,87.964386,0.091645,0.102701,1.058619,0.397583,0.095631,0.221785,walking
42:11.7,32.90815298,-80.10053636,32.805,36.524,1018.868,203.611959,1.324648,8.17829,-16.703152,15.675894,87.068085,-0.060228,-0.093113,1.153661,0.609248,-0.164597,0.113356,walking
42:11.9,32.90815298,-80.10053636,32.698,36.431,1018.871,206.912361,0.177748,7.011751,-16.4069,16.859674,86.668381,0.062066,0.151988,0.677965,-0.432583,-0.375651,0.159477,walking
42:12.1,32.90815298,-80.10053636,32.805,36.903,1018.875,204.619958,1.769312,5.73112,-16.37516,16.803711,87.041977,0.133103,0.252504,0.840754,-0.082863,0.441687,-0.040887,walking
42:12.2,32.90815298,-80.10053636,32.947,36.514,1018.872,199.256361,359.085853,5.03667,-17.163486,16.659937,87.017723,0.216262,0.050258,1.496055,-0.300636,0.521405,0.322883,walking
42:12.4,32.90815298,-80.10053636,32.751,36.418,1018.866,200.40513,358.89797,5.418565,-17.637671,17.039486,86.137703,-0.015304,0.035691,0.787872,0.379868,0.219332,0.014702,walking
42:12.6,32.90815298,-80.10053636,32.982,36.713,1018.863,201.58454,358.405444,7.038234,-17.805069,17.2806,85.322708,0.038549,0.161214,0.679914,0.327333,0.041875,0.016229,walking
42:12.7,32.90815298,-80.10053636,32.858,36.434,1018.863,200.705905,357.672477,9.947587,-18.260386,18.203104,85.078964,0.195654,0.242307,1.019384,-0.375162,0.069975,0.212317,walking
42:12.9,32.90815214,-80.10052583,32.947,36.375,1018.881,193.67111,352.988953,14.614446,-17.437632,18.392071,85.421402,0.087765,0.234538,0.635561,-0.114017,-0.253783,-0.01462,walking
42:13.1,32.90815214,-80.10052583,32.965,36.401,1018.878,189.482292,348.974266,14.225489,-15.757689,18.042219,86.02755,0.190078,0.098088,0.671872,0.069854,-0.182618,-0.223841,walking
42:13.2,32.90815214,-80.10052583,32.911,36.022,1018.889,187.226417,346.748034,13.060059,-14.221887,17.035109,87.013199,0.128496,0.177239,0.950661,0.090318,-0.277913,-0.490484,walking
42:13.4,32.90815214,-80.10052583,32.805,36.228,1018.888,187.429082,351.107814,9.752626,-13.939878,15.759424,87.543655,0.09019,0.02695,1.055451,0.339856,-0.392755,-0.993226,walking
42:13.6,32.90815214,-80.10052583,32.822,36.228,1018.886,187.523134,351.492611,8.525211,-13.996261,14.180339,88.293571,0.15759,0.025493,0.649452,0.124221,-0.248897,-0.394273,walking
42:13.7,32.90815214,-80.10052583,32.911,36.394,1018.886,186.147466,349.931968,8.022491,-13.459683,13.102454,88.307068,0.234203,0.206859,0.848552,0.048536,-0.143208,0.11706,walking
42:13.9,32.90815214,-80.10052583,32.893,36.384,1018.881,187.998106,348.823384,8.26846,-12.831499,12.845056,88.369133,0.253356,0.006798,1.31377,-0.533924,0.123435,0.673864,walking
42:14.1,32.90815214,-80.10052583,32.947,36.235,1018.881,195.057489,352.54086,5.361372,-11.932049,13.259721,88.538261,0.055278,0.000243,1.0033,0.10779,0.026613,0.265501,walking
42:14.2,32.90815214,-80.10052583,32.911,36.285,1018.881,196.069176,352.880513,6.47949,-11.229911,13.617286,88.661423,0.055278,0.238908,0.708914,0.179423,0.056482,0.264215,walking
42:19.0,32.9081429,-80.10050475,32.521,35.993,1018.922,205.73093,358.475938,343.08183,-16.808481,10.843254,93.218811,0.073946,-0.033048,0.928729,-0.180376,0.086415,0.053772,go_up
42:19.2,32.9081429,-80.10050475,32.521,36.089,1018.92,205.540094,359.351527,343.453515,-23.143354,7.559637,97.720497,0.061824,-0.040767,0.957485,0.014847,0.105983,0.010526,go_up
42:19.4,32.9081429,-80.10050475,32.627,35.803,1018.923,205.346813,359.563259,344.825553,-26.048414,6.287164,98.55146,0.073946,-0.045833,0.90972,0.018067,0.029345,0.084336,go_up
42:19.5,32.90814206,-80.10049421,32.716,35.574,1018.929,205.85502,356.38271,344.160122,-26.066105,6.221264,98.82386,0.030063,-0.077434,0.951149,-0.114797,-0.581215,-0.033866,go_up
42:19.7,32.90814206,-80.10049421,32.556,36.288,1018.918,208.989476,354.475741,344.443935,-22.89315,6.74553,99.486298,0.11201,-0.029671,0.870729,0.062965,0.012852,0.372665,go_up
42:19.9,32.90814206,-80.10049421,32.698,36.285,1018.913,211.124061,1.107539,343.139241,-20.536842,7.493827,99.20562,0.048247,-0.079363,1.013291,-0.130068,0.788651,0.555924,go_up
42:20.0,32.90814206,-80.10049421,32.627,35.84,1018.922,214.760358,5.557872,342.547688,-20.99143,8.688266,97.256935,0.04364,-0.075504,0.976006,-0.055543,0.147548,0.475901,go_up
42:20.2,32.90814206,-80.10049421,32.609,35.66,1018.924,218.108352,6.533836,343.068642,-21.295351,9.962313,95.364807,0.091887,-0.077916,0.957241,-0.023472,0.0718,0.204066,go_up
42:20.4,32.90814206,-80.10049421,32.68,36.458,1018.933,216.227373,5.394148,345.356052,-21.470255,11.290357,94.07119,0.136739,-0.040043,1.017191,0.369925,-0.240657,-0.352433,go_up
42:20.6,32.90814206,-80.10049421,32.68,34.794,1018.933,210.16375,359.733567,350.406956,-21.905069,12.252113,94.149109,0.140376,-0.038837,0.850746,0.336938,-0.48592,-0.988954,go_up
42:20.7,32.90814206,-80.10049421,32.698,36.013,1018.929,202.387142,358.244556,351.703116,-20.693956,12.535021,95.759094,0.076613,0.089105,1.004031,-0.146562,0.073633,-0.471551,go_up
42:20.9,32.90814206,-80.10049421,32.574,34.893,1018.931,196.18727,357.967197,355.158553,-19.601665,12.379701,97.045258,0.21311,0.209287,0.910451,0.314642,-0.139865,-0.214377,go_up
42:21.1,32.90814206,-80.10049421,32.432,35.85,1018.935,191.766813,351.770812,359.366389,-17.724216,12.676416,98.580292,0.194927,0.235509,0.968451,0.205297,-0.613896,-0.051276,go_up
42:21.2,32.90814206,-80.10049421,32.343,36.245,1018.931,186.104886,347.865166,5.024199,-13.931071,15.373987,99.874565,0.137709,0.107072,0.837342,0.178113,-0.263259,-0.585783,go_up
42:21.4,32.90814206,-80.10049421,32.361,36.149,1018.924,178.395375,344.214209,8.410943,-11.787374,18.597462,99.431046,0.143528,0.292565,0.650183,-0.004841,-0.262648,-0.539968,go_up
42:21.6,32.90814206,-80.10049421,32.201,35.328,1018.918,170.759292,342.911166,10.535347,-10.989699,21.399137,97.507179,0.14474,0.213657,0.824426,-0.026221,-0.184763,-0.553713,go_up
42:21.8,32.90814206,-80.10049421,32.201,35.836,1018.909,175.074769,349.71012,4.715446,-12.300919,23.234753,95.116478,0.210686,-0.052346,1.079577,-0.032941,0.518037,-0.08915,go_up
42:21.9,32.90814689,-80.10049238,32.201,36.58,1018.905,175.96085,355.01635,1.652127,-15.636053,24.376776,92.221001,0.15565,0.208073,0.860494,-0.470626,0.507958,-0.048527,go_up
42:22.1,32.90814689,-80.10049238,32.254,35.717,1018.908,176.368653,358.701368,0.078192,-17.786327,24.349018,89.516266,0.116616,0.167527,0.932384,-0.084864,0.236734,0.019279,go_up
42:22.3,32.90814689,-80.10049238,32.272,36.072,1018.913,179.300361,358.347079,2.296228,-18.565556,23.691322,86.910164,0.099403,0.126495,1.073241,-0.164888,0.066302,0.826537,go_up
42:22.4,32.90813933,-80.10049238,32.396,35.597,1018.91,187.05793,355.906247,3.571124,-16.804745,23.856606,85.589783,-0.02888,-0.058135,0.883888,-0.127319,0.025069,0.810044,go_up
42:22.6,32.90813933,-80.10049238,32.432,35.906,1018.911,197.915759,352.576976,2.851289,-13.347755,24.036236,85.077171,0.049944,0.107314,0.686494,0.329608,0.023542,0.814626,go_up
42:22.8,32.90813933,-80.10049238,32.414,35.7,1018.913,206.358924,353.253949,4.021849,-9.344771,24.574724,84.844696,0.096736,0.108285,0.940913,0.325332,0.196111,0.689398,go_up
42:22.9,32.90813933,-80.10049238,32.45,35.956,1018.923,213.148023,358.11165,1.099698,-6.505404,25.436735,84.514023,0.093827,-0.177542,1.346913,0.120997,0.64357,0.54218,go_up
42:23.1,32.90813933,-80.10049238,32.432,35.807,1018.923,224.867098,359.532932,359.245359,-5.179047,25.296881,84.393753,0.016729,0.068953,0.747175,-0.026527,-0.282807,0.812793,go_up
42:23.3,32.90813933,-80.10049238,32.325,36.278,1018.934,236.111652,358.508719,359.689157,-2.341386,24.451075,83.158745,0.118314,0.096874,0.88462,0.117332,-0.211947,1.06508,go_up
42:23.4,32.90812693,-80.10049421,32.308,35.7,1018.941,245.287997,357.272179,359.328302,1.634388,23.645729,83.181175,0.24487,-0.071403,1.232375,-0.449856,0.464281,0.751401,go_up
42:23.6,32.90812693,-80.10049421,32.343,35.714,1018.94,253.509209,2.257571,356.434399,4.035555,22.896255,82.630821,-0.031101,-0.134604,0.99867,-0.238191,0.544304,0.642667,go_up
42:23.8,32.90812693,-80.10049421,32.414,36.268,1018.938,257.112537,3.82761,357.230855,5.295035,21.848835,81.488838,0.01091,0.190107,0.684545,0.349766,0.080658,0.053182,go_up
42:23.9,32.90812693,-80.10049421,32.308,35.381,1018.939,261.952348,7.093557,2.126038,6.182563,21.144493,80.936043,0.109586,0.171412,1.119056,0.766682,-0.375353,-0.92573,go_up
42:24.1,32.90812693,-80.10049421,32.361,35.966,1018.943,253.359621,4.963952,8.064317,6.131941,21.390684,80.731911,0.150074,0.253475,0.860981,-0.029886,-0.751646,-0.362817,go_up
42:24.3,32.90812693,-80.10049421,32.272,35.554,1018.952,245.48444,2.201697,9.024428,5.382754,21.857731,80.560516,0.161469,0.103915,0.629225,0.138102,-0.161245,-0.341132,go_up
42:24.4,32.90812693,-80.10049421,32.166,35.886,1018.956,241.00592,1.364223,8.682255,5.159731,21.567829,80.222412,0.154438,0.07915,1.048384,0.333578,0.266055,-0.125496,go_up
42:24.6,32.90812693,-80.10049421,32.095,35.767,1018.952,241.972214,2.865045,7.194196,4.510565,21.878672,79.665184,-0.003209,0.003885,1.17535,0.467358,-0.360387,-0.850593,go_up
42:24.8,32.90812693,-80.10049421,31.988,35.385,1018.951,241.558236,0.897607,6.330067,3.530153,21.728962,80.318336,0.113707,0.112656,0.720855,-0.334097,-0.484393,-0.34724,go_up
42:24.9,32.90812209,-80.10049604,32.006,36.086,1018.949,236.194639,359.245052,4.597948,2.86714,20.950159,80.507889,0.118314,0.125281,0.836368,-0.35731,0.029956,-0.474606,go_up
42:25.1,32.90812209,-80.10049604,31.988,35.631,1018.955,230.547862,0.540699,359.580914,1.585418,20.431091,80.963554,0.351062,-0.175854,1.339602,-0.733298,1.051628,0.066316,go_up
42:25.3,32.90812209,-80.10049604,32.183,35.943,1018.953,224.74033,0.568696,355.113033,-1.261667,19.435093,82.108528,0.205594,0.023551,0.854401,-0.068982,0.148769,-0.252556,go_up
42:25.5,32.90811453,-80.10049604,32.148,35.734,1018.948,220.415686,358.529912,353.285361,-4.095156,18.238291,83.535812,0.124375,0.029378,0.853183,0.193079,-0.122455,-0.538746,go_up
42:25.6,32.90811453,-80.10049604,32.148,35.631,1018.941,214.736315,357.250683,355.069953,-5.964751,18.183863,84.357315,0.167045,0.210987,1.008661,-0.373193,0.217797,0.011949,go_up
42:28.1,32.90810129,-80.10048733,32.29,35.916,1018.972,248.740829,53.488161,274.527778,-12.937142,18.231766,84.194092,0.064733,-0.245327,1.293543,0.039447,-0.324957,0.016836,go_up
42:28.2,32.90810129,-80.10048733,32.29,35.647,1018.967,252.980635,50.60856,282.384818,-18.704494,17.984295,83.683907,0.006546,0.035448,0.86488,0.195218,-0.606566,-0.184139,go_up
42:28.4,32.90809372,-80.10048733,32.059,34.445,1018.975,253.244191,43.022002,291.505572,-20.106869,18.173176,84.555878,0.064733,0.136692,0.822721,-0.096351,-0.20388,-0.036901,go_up
42:28.6,32.90809372,-80.10048733,32.059,35.856,1018.984,246.063572,34.066812,299.167494,-20.179609,18.247431,84.210236,0.275903,0.220941,1.008905,-0.071305,0.872159,-0.244289,go_up
42:28.8,32.90809372,-80.10048733,32.112,35.531,1018.996,236.032026,28.5184,299.632787,-22.273319,19.700907,82.611389,0.070309,0.096146,1.027913,-0.013273,0.291226,0.31679,go_up
42:28.9,32.90809372,-80.10048733,32.166,35.81,1018.998,235.529966,26.12114,306.30582,-24.249943,20.565632,81.543213,0.069582,0.146404,0.675528,0.094757,-0.175228,-0.037181,go_up
42:29.1,32.90809372,-80.10048733,32.325,35.621,1018.991,235.066469,20.117532,311.809252,-23.619219,21.118103,81.885139,0.103524,0.224098,0.991846,0.110029,-0.329166,-0.030462,go_up
42:29.3,32.90809372,-80.10048733,32.13,35.694,1018.995,234.905441,13.621307,318.008147,-22.108889,20.712687,83.261314,0.072734,0.117512,0.840754,-0.046775,0.050238,0.074554,go_up
42:29.4,32.90809289,-80.10047679,32.219,35.587,1018.994,234.684607,9.37975,321.194854,-20.431635,20.124485,85.089455,0.127284,0.132322,0.667973,0.052913,0.005008,0.151843,go_up
42:29.6,32.90809289,-80.10047679,31.988,35.654,1018.993,233.4346,4.967849,324.282099,-18.981745,19.681301,86.032967,0.153953,0.144219,0.96772,0.148925,-0.054663,-0.106893,go_up
42:29.8,32.90809289,-80.10047679,32.13,36.086,1019,230.427732,6.878555,326.167276,-17.624819,19.759188,86.319962,0.25966,-0.115788,1.238467,0.859056,0.250769,-0.376284,go_up
42:29.9,32.90809289,-80.10047679,32.166,35.929,1018.987,229.339806,4.844393,330.207688,-17.17621,20.519659,85.964592,0.184501,0.115084,0.620696,0.134472,0.000155,0.096869,go_up
42:30.1,32.90809289,-80.10047679,32.254,35.511,1018.982,225.828297,2.856675,332.970216,-16.513784,20.942421,84.59951,0.136982,0.237451,0.832712,-0.056729,-0.025501,0.258137,go_up
42:30.3,32.90809289,-80.10047679,32.041,35.777,1018.985,226.277805,2.498387,335.178946,-15.584929,21.783484,84.742081,0.184986,0.075023,1.338627,-1.057021,0.119884,0.915734,go_up
42:30.5,32.90809289,-80.10047679,32.166,36.328,1018.984,226.822403,4.469638,336.008083,-13.927948,22.117924,84.914742,0.118071,-0.032083,0.947006,0.004663,0.251221,0.010431,go_up
42:30.6,32.90809289,-80.10047679,32.112,35.92,1019.001,223.709995,2.790687,338.647669,-13.478338,22.194004,84.40448,0.112737,0.152231,0.684788,-0.078415,0.014205,-0.545151,go_up
42:30.8,32.90809289,-80.10047679,32.077,35.584,1019.002,216.733722,359.672998,339.909444,-13.224171,21.758114,84.283348,0.172379,0.244007,1.039611,0.099653,0.061241,-0.451994,go_up
42:30.9,32.90809205,-80.10046626,32.112,35.939,1019.001,213.354882,359.123441,341.758122,-13.278016,20.97901,84.969223,0.284147,0.084006,1.071535,0.305514,-0.213342,-0.375025,go_up
42:31.1,32.90809205,-80.10046626,32.024,34.936,1019.007,210.879936,354.347363,345.063539,-13.549863,20.32831,85.122856,0.241476,0.104644,0.589015,0.257256,-0.051463,-0.342954,go_up
42:31.3,32.90809205,-80.10046626,32.148,35.986,1019.011,208.44272,351.443942,349.726464,-13.031516,20.038034,85.198883,0.193472,0.2156,0.80225,0.308569,-0.029167,0.236757,go_up
42:31.4,32.90807881,-80.10045755,31.97,35.743,1019.021,209.679284,353.079982,352.311393,-11.701003,20.671923,85.090332,0.219656,0.109257,1.429769,-0.987993,0.2894,0.95544,go_up
42:31.6,32.90807881,-80.10045755,32.077,35.79,1019.02,211.888523,355.634882,350.419721,-11.20165,20.982613,85.167076,0.138194,0.084006,0.86951,-0.315736,0.193799,0.20713,go_up
42:31.8,32.90807881,-80.10045755,32.024,34.976,1019.023,210.013035,354.771839,350.979114,-11.069624,21.108229,85.368927,0.110313,0.294507,0.688687,-0.073136,-0.126227,-0.070127,go_up
42:31.9,32.90807881,-80.10045755,32.112,36.391,1019.019,204.724556,351.44451,353.910687,-10.391124,20.658117,85.68248,0.353729,0.220456,0.950174,0.208778,-0.174791,-0.816299,go_up
42:32.1,32.90807881,-80.10045755,32.112,35.186,1019.022,199.809907,350.661933,0.544993,-10.411996,20.487652,86.185806,0.23396,0.157087,0.964065,0.111345,0.693249,1.065166,go_up
42:32.3,32.90807881,-80.10045755,32.095,36.378,1019.013,203.854513,352.091798,4.724798,-10.459805,21.191692,85.664024,0.214565,0.19302,0.565864,0.319345,0.535034,0.500726,go_up
42:32.4,32.9080704,-80.10044701,32.166,36.039,1019.013,207.037094,354.20876,6.749347,-10.205164,22.500666,84.698067,0.216989,0.204189,0.931166,-0.060002,0.111399,0.468656,go_up
42:32.6,32.9080704,-80.10044701,32.112,36.162,1019.007,212.769849,356.281394,1.383794,-9.147767,23.210566,84.318871,0.126314,-0.067061,1.335459,-0.353523,0.094295,0.255769,go_up
42:32.8,32.9080704,-80.10044701,32.13,36.541,1019.004,220.323451,2.208001,358.720282,-8.550262,23.244955,84.595825,0.016729,0.061184,0.97893,-0.060002,0.19295,0.569449,go_up
42:32.9,32.9080704,-80.10044701,32.13,36.013,1018.992,222.104136,2.646101,1.049272,-8.128345,23.630068,84.250008,0.071522,0.306404,0.68162,0.030406,-0.248706,0.30189,go_up
42:33.1,32.9080704,-80.10044701,32.166,36.115,1019,216.750388,359.488164,2.968332,-7.085995,23.823812,84.445213,0.34888,0.304947,1.013291,-0.08627,0.328257,-0.069822,go_up
42:33.3,32.9080704,-80.10044701,32.219,36.232,1018.997,212.391266,0.07428,6.268591,-6.848321,24.287287,84.494904,0.091402,0.128194,0.968695,-0.119562,0.447986,0.347094,go_up
42:33.5,32.9080704,-80.10044701,32.112,36.125,1018.991,212.385596,2.778212,8.511077,-7.735134,24.838243,84.141418,0.065945,0.308347,0.67699,-0.285412,0.569243,0.593883,go_up
42:33.6,32.9080704,-80.10044701,31.97,34.252,1018.998,214.222043,5.840452,7.806484,-7.607289,24.337395,84.513359,0.073704,0.102701,1.095417,-0.317482,-0.10332,0.00898,go_up
42:33.8,32.908062,-80.10043647,32.112,36.813,1018.996,215.398256,5.106272,10.469953,-7.197938,23.363338,85.128174,0.054793,0.108771,0.917762,0.553001,-0.007414,-0.078374,go_up
42:34.0,32.908062,-80.10043647,32.112,36.159,1018.997,216.112448,4.573277,13.169356,-6.693906,23.103519,85.337875,0.063521,0.162914,0.670166,0.165712,0.170348,0.027,go_up
42:34.1,32.908062,-80.10043647,32.006,36.288,1019.005,214.054376,1.56021,13.923657,-6.735094,23.745327,85.111458,0.084129,0.190349,0.925561,0.061254,-0.142721,0.162002,go_up
42:34.3,32.908062,-80.10043647,32.041,36.245,1019.013,219.086053,4.045024,10.56781,-5.830829,24.78932,84.13092,0.078068,-0.189845,1.412223,0.34378,0.106513,-0.035308,go_up
42:34.5,32.90804876,-80.10042776,32.077,36.072,1019.018,227.164773,5.471689,10.89916,-5.045899,25.187492,83.954582,0.049701,0.14689,0.684545,0.091798,0.044204,0.700785,go_up
42:34.7,32.90804876,-80.10042776,31.988,35.431,1019.022,232.151945,3.608935,10.556487,-3.90239,25.360207,83.864334,0.14474,0.124795,0.79104,-0.336419,0.18226,0.701701,go_up
42:34.8,32.90804876,-80.10042776,32.006,35.853,1019.029,235.627036,1.206216,10.313301,-1.375463,24.70355,83.960754,0.185229,0.202246,1.068123,-0.192255,0.276028,0.763093,go_up
42:35.0,32.90804876,-80.10042776,31.935,36.291,1019.019,237.472349,1.512602,12.942472,0.856614,23.767687,84.097519,0.020123,0.093961,0.88072,-0.099098,0.157825,0.497672,go_up
42:35.2,32.90804876,-80.10042776,31.899,36.245,1019.011,241.501887,359.925834,12.600011,2.617469,23.236841,84.114357,0.135042,0.171412,0.702334,-0.05145,-0.159214,0.387716,go_up
42:35.3,32.90804876,-80.10042776,31.917,36.142,1019.009,236.535301,357.573775,12.798317,4.857618,22.775255,84.225586,0.261114,0.149075,1.035712,0.331562,-0.334838,-0.766514,go_up
42:35.5,32.9080412,-80.10042776,32.024,36.288,1019.005,229.507228,356.812666,14.343652,5.645621,22.47571,84.405487,0.172137,0.170198,0.851721,0.399368,0.399422,0.021503,go_up
42:35.7,32.9080412,-80.10042776,32.024,36.8,1019.009,229.922708,355.87608,16.511069,5.544741,22.612942,84.292793,0.16656,0.168984,0.645066,0.359662,0.035347,0.302806,go_up
42:35.8,32.9080412,-80.10042776,31.864,36.371,1019.016,231.75615,355.26227,15.7026,6.048913,23.090521,83.609062,0.21117,0.136935,0.914838,-0.065195,-0.052618,0.463769,go_up
42:36.0,32.9080412,-80.10042776,31.899,36.066,1019.022,237.08591,353.483019,10.155872,7.250531,22.427906,83.773903,0.16753,-0.163069,1.346913,-0.505018,-0.028489,0.140011,go_up
42:36.1,32.9080412,-80.10042776,31.828,36.072,1019.022,244.336511,354.430211,8.356952,8.298388,21.741171,83.803329,0.032245,0.037147,0.805418,0.106764,0.118424,0.375805,go_up
42:36.3,32.9080412,-80.10042776,31.97,36.262,1019.031,247.310253,354.104069,10.109758,9.20834,21.330523,83.764282,0.116859,0.231624,0.678452,0.24879,-0.031238,0.203846,go_up
42:36.5,32.9080412,-80.10042776,32.006,36.577,1019.034,239.45615,356.713112,12.147962,10.188012,21.393446,83.572868,0.280995,0.252019,1.114913,0.498634,0.207305,-0.275378,go_up
42:36.6,32.9080412,-80.10042776,31.935,36.511,1019.036,231.462998,357.312632,15.307263,9.463635,22.064192,83.532166,0.19226,0.174568,0.900216,-0.029154,0.361854,0.200486,go_up
42:36.8,32.9080288,-80.10042959,31.917,36.305,1019.023,230.100963,358.454073,16.153505,8.699085,22.501196,83.956177,0.227657,0.185736,0.655788,0.065225,0.423246,0.247828,go_up
42:37.0,32.9080288,-80.10042959,31.899,36.607,1019.024,228.781916,359.236758,17.635682,8.01933,22.938086,83.476578,0.217232,0.147618,0.921418,0.296132,-0.050174,0.14673,go_up
42:37.2,32.9080288,-80.10042959,31.899,36.458,1019.007,232.86096,353.706008,17.229965,8.435874,23.203423,82.586761,0.198563,0.213657,0.959191,-0.126587,-0.614308,0.957043,go_up
42:37.3,32.9080288,-80.10042959,31.704,35.677,1019.014,229.568467,350.962304,13.416521,11.822305,20.983143,82.054535,0.023032,0.151745,0.759603,-0.507767,0.306265,-0.925644,go_up
42:37.5,32.90801283,-80.10041905,31.58,35.966,1019.02,235.174468,352.513535,12.152308,13.648202,18.638466,82.931297,0.026669,0.133293,0.727922,0.43205,-0.03643,0.335487,go_up
42:37.7,32.90801283,-80.10041905,31.509,36.142,1019.021,244.813518,352.600067,12.654364,14.0379,17.701235,83.89653,0.265721,0.184765,1.038636,0.213665,0.3307,0.078924,go_up
42:37.8,32.90801283,-80.10041905,31.509,35.993,1019.023,239.761896,358.608284,15.645826,13.87113,17.290281,84.370865,0.237839,0.204431,1.011098,0.020937,0.809924,-0.31936,go_up
42:38.0,32.90801283,-80.10041905,31.473,36.733,1019.036,235.507112,0.45881,18.788102,11.9545,18.020882,85.251144,0.097221,0.092747,0.730359,0.317512,-0.182732,-0.05119,go_up
42:38.2,32.90801283,-80.10041905,31.473,36.291,1019.035,239.792468,357.800212,20.685776,11.54446,19.190882,84.748489,0.05746,-0.00193,0.946031,0.27689,-0.243208,0.27043,go_up
42:38.3,32.90800043,-80.10042088,31.438,36.949,1019.034,250.749656,352.534571,12.280989,13.234508,19.727465,83.088112,0.204139,-0.180919,1.240661,0.006276,-0.030627,-0.05119,go_up
42:38.5,32.90800043,-80.10042088,31.544,36.551,1019.028,260.803298,352.37627,9.474333,14.625806,19.742197,81.945625,0.093099,0.164128,0.677234,0.17457,0.134001,0.826928,go_up
42:38.7,32.90800043,-80.10042088,31.491,36.673,1019.021,274.234175,351.210261,9.538135,15.986469,19.083349,81.505219,0.176986,0.166556,0.807855,-0.282968,-0.365381,0.390465,go_up
42:38.8,32.90800043,-80.10042088,31.473,36.149,1019.012,267.801851,348.953458,8.779766,17.612265,17.744417,81.002167,0.421371,0.367831,1.15756,-0.583208,0.746088,0.286007,go_up
42:39.0,32.90800043,-80.10042088,31.562,36.896,1019.016,266.890383,353.154142,9.451758,18.370495,16.413034,81.025978,0.124375,-0.058135,0.979905,-0.019685,0.463869,0.335793,go_up
42:39.2,32.90800043,-80.10042088,31.704,36.803,1019.008,267.074286,354.06075,10.613735,18.653503,16.733965,80.651062,0.155893,0.207588,0.579998,0.009025,0.219828,0.293949,go_up
42:39.3,32.90800043,-80.10042088,31.527,35.966,1019.002,269.015904,353.705635,11.314955,19.148489,16.966736,80.534286,0.127769,0.167284,1.036686,0.032849,-0.205334,0.39413,go_up
42:39.5,32.90800043,-80.10042088,31.527,34.92,1019.007,276.422814,356.766779,9.007099,19.395693,15.595343,81.298729,0.071522,-0.031118,1.113695,0.721294,0.129115,-0.441228,go_up
42:39.7,32.90800043,-80.10042088,31.544,36.159,1019.006,277.596418,356.261726,10.861741,19.209505,14.699289,81.747124,0.153953,0.178695,0.509814,0.106153,0.215247,0.314413,go_up
42:39.8,32.90799286,-80.10042088,31.598,36.122,1019.004,274.608538,354.974824,9.761235,19.711315,14.137178,81.713654,0.185714,0.292079,0.926535,-0.268002,-0.070638,0.545014,go_up
42:40.0,32.90799286,-80.10042088,31.562,37.185,1019.016,278.267081,355.95252,13.47316,20.380472,14.030272,81.367088,0.26669,0.364189,1.322055,-0.691637,0.912855,0.550207,go_up
42:40.2,32.90799286,-80.10042088,31.58,35.863,1019.024,282.548544,358.719077,12.303881,20.181452,14.034143,81.807533,0.15759,-0.002653,0.825401,0.09699,-0.056283,-0.043249,go_up
42:40.4,32.9079813,-80.10043325,31.598,36.727,1019.025,278.967537,0.05772,11.014631,19.675415,14.67204,81.854637,0.163893,0.216085,0.67041,-0.328783,0.137361,0.059682,go_up
42:40.5,32.9079813,-80.10043325,31.562,36.647,1019.029,277.6494,358.949391,8.262137,19.30892,14.69159,81.934158,0.14765,0.210501,1.174131,-0.271973,-0.370268,0.260046,go_up
42:40.7,32.9079813,-80.10043325,31.562,36.69,1019.037,280.802263,357.5694,11.235223,19.440756,13.268513,82.60099,-0.026905,0.104158,0.84709,0.615004,0.014272,-0.031643,go_up
42:40.8,32.9079813,-80.10043325,31.704,35.431,1019.052,282.292678,357.822819,12.42844,19.709799,12.792299,83.069122,0.136739,0.241336,0.538083,-0.108261,0.341085,0.411846,go_up
42:41.0,32.9079813,-80.10043325,31.527,36.484,1019.057,290.839916,358.732466,11.217399,20.628538,11.329835,83.069336,0.217232,0.180395,1.054233,-0.370322,-0.228853,0.228891,go_up
42:41.2,32.9079813,-80.10043325,31.562,36.614,1019.066,289.077843,0.020486,11.471625,21.24704,10.717166,83.034554,0.25578,0.058513,1.452433,-0.332448,0.745172,0.136345,go_up
42:41.3,32.90797374,-80.10043325,31.491,36.155,1019.065,293.613696,1.821809,12.259158,20.803795,12.514441,82.138222,0.14474,0.102216,0.685032,0.253982,-0.044677,-0.11075,go_up
42:41.5,32.90797374,-80.10043325,31.615,35.803,1019.052,287.239736,359.890281,11.652192,20.387516,14.046962,82.070572,0.197109,0.216085,0.740351,-0.080883,-0.03591,0.030842,go_up
42:41.7,32.90797374,-80.10043325,31.544,36.982,1019.053,289.209966,357.378305,10.187656,20.916401,14.266634,81.270973,0.266206,0.136449,1.286963,-0.972746,0.256695,1.030523,go_up
42:41.9,32.90797374,-80.10043325,31.562,36.414,1019.04,296.215391,359.118695,9.86455,21.493687,13.086739,81.47364,0.027881,0.127952,0.766914,0.084356,0.146739,0.160651,go_up
42:42.0,32.90797374,-80.10043325,31.491,36.607,1019.041,298.337899,0.260495,9.60218,21.613672,12.679222,81.671051,0.168985,0.2139,0.644091,-0.132501,0.079544,0.195776,go_up
42:42.2,32.90797374,-80.10043325,31.473,34.671,1019.037,300.264894,359.863096,7.388322,21.647371,11.394439,82.115845,0.254326,0.174325,1.130022,0.111539,-0.346229,-0.599571,go_up
42:42.4,32.90797374,-80.10043325,31.509,36.305,1019.038,301.355456,359.685401,10.829114,21.643702,10.568153,82.699364,0.323423,0.112656,0.913863,0.39437,-0.040491,-0.029633,go_up
42:42.5,32.90797374,-80.10043325,31.456,37.607,1019.023,288.150344,359.585973,12.257733,22.003401,11.250618,81.911011,0.163651,0.237208,0.505671,0.085578,0.258527,-0.093774,go_up
42:42.7,32.90797374,-80.10043325,31.438,36.597,1019.038,274.8921,359.682809,10.000519,22.069269,11.865921,81.756989,0.229839,0.10343,1.0903,-0.04589,-0.100771,0.142636,go_up
42:42.9,32.90796218,-80.10044561,31.385,36.673,1019.042,283.739114,357.932328,5.318535,22.070009,11.390371,81.545601,0.176016,-0.148836,1.2894,0.477927,-0.096801,-0.524734,go_up
42:43.0,32.90796218,-80.10044561,31.42,36.358,1019.045,287.823089,357.247236,6.484045,22.591206,11.190923,81.439445,0.146195,0.156358,0.474965,0.068036,0.147545,0.163711,go_up
42:43.2,32.90796218,-80.10044561,31.314,36.547,1019.043,287.175683,357.671161,5.239202,22.564722,11.33343,81.429588,0.211898,0.252504,0.749855,-0.273438,0.045225,0.101097,go_up
42:43.4,32.90795545,-80.10045615,31.349,36.59,1019.045,281.256778,359.24387,6.753448,22.267155,10.987455,81.26825,0.295299,0.348407,1.30524,-0.962494,0.969464,0.345138,go_up
42:43.5,32.90795545,-80.10045615,31.314,36.806,1019.049,283.938604,2.729231,6.781206,20.764742,11.094328,82.675499,0.119283,-0.04728,0.904115,0.011836,0.081572,0.098348,go_up
42:43.7,32.90795545,-80.10045615,31.314,36.607,1019.043,281.41784,1.356789,7.4592,19.833588,11.836293,83.009827,0.196381,0.202732,0.597057,0.075366,-0.025635,-0.136224,go_up
42:43.9,32.90795545,-80.10045615,31.278,36.086,1019.042,273.628775,358.932564,7.404726,20.004353,12.595959,82.742546,0.169712,0.159515,1.035955,0.016418,-0.243103,0.314289,go_up
42:44.0,32.90795545,-80.10045615,31.26,36.84,1019.052,277.601254,358.065204,10.477301,20.775026,11.456081,82.46711,0.016001,0.069681,0.906796,0.636141,0.099898,-0.440435,go_up
42:44.2,32.90795545,-80.10045615,31.296,36.301,1019.061,278.50805,358.109479,11.608754,21.809582,11.138017,82.357689,0.169712,0.175296,0.581461,-0.062078,0.114559,0.314289,go_up
42:44.4,32.90795062,-80.10045798,31.278,36.793,1019.058,274.220692,356.542442,8.91934,21.822971,10.574693,82.406776,0.267903,0.173597,1.016947,-0.190055,-0.300219,-0.036653,go_up
42:44.5,32.90795062,-80.10045798,31.385,36.561,1019.063,284.991436,0.196018,4.491681,22.220259,10.137197,81.847099,0.306452,-0.254976,1.51945,0.345063,0.024151,-0.556499,go_up
42:44.7,32.90795062,-80.10045798,31.314,36.8,1019.068,282.913822,359.774798,4.124014,21.866909,10.397697,81.883057,0.178925,0.125038,0.506158,0.255572,-0.101688,-0.525345,go_up
42:44.9,32.90795062,-80.10045798,31.331,36.856,1019.073,271.431489,358.329132,2.925506,21.550886,12.089873,81.564903,0.230324,0.229196,0.782511,-0.196123,0.018886,0.118625,go_up
42:45.0,32.90795062,-80.10045798,31.331,36.534,1019.076,262.133395,355.179525,358.053396,21.448584,12.754307,80.877029,0.345485,-0.02171,1.397601,-1.132885,0.443437,0.504386,go_up
42:45.2,32.90795062,-80.10045798,31.331,37.152,1019.079,267.539114,356.955504,356.139344,20.959532,12.62602,81.50753,0.076855,-0.027982,0.739376,0.145961,-0.22149,-0.155959,go_up
42:45.4,32.90795062,-80.10045798,31.243,36.747,1019.067,265.33618,354.346791,356.339863,20.636431,13.268641,81.897995,0.21311,0.2678,0.619965,-0.209562,-0.331445,-0.06097,go_up
42:45.6,32.90795062,-80.10045798,31.207,36.624,1019.074,251.181911,347.773751,357.258977,21.594189,13.255264,80.510475,0.407794,0.362247,1.070804,-0.158555,-0.010741,-0.462919,go_up
42:45.7,32.90795062,-80.10045798,31.172,36.859,1019.071,236.504866,345.951891,1.599653,21.728539,14.15251,79.810257,0.305482,0.132079,0.709645,-0.241022,0.305687,-0.397862,go_up
42:45.9,32.90793906,-80.10047035,31.207,36.72,1019.062,225.040735,344.328951,3.112286,20.457617,15.786275,80.138588,0.184986,0.228953,0.664805,0.060745,-0.062359,-0.413134,go_up
42:46.1,32.90793906,-80.10047035,31.189,37.099,1019.063,221.754512,342.566975,6.922991,19.762609,17.4123,79.676147,0.23493,0.293293,1.033762,0.314865,-0.247451,0.408786,go_up
42:46.2,32.90793906,-80.10047035,31.172,36.497,1019.052,227.837315,342.422547,9.943559,20.446589,18.170652,79.081993,0.147892,0.267072,0.755704,-0.231859,0.410145,0.022719,go_up
42:46.4,32.90793233,-80.10048089,31.101,36.962,1019.051,236.300411,344.142234,8.599078,20.537849,17.809372,79.1306,0.148619,0.232595,0.615335,-0.181768,0.067755,0.269814,go_up
42:46.6,32.90793233,-80.10048089,31.154,36.849,1019.051,249.236277,344.449398,6.315426,20.737415,16.784655,79.505257,0.350819,0.069681,1.071291,-0.056473,-0.184262,-0.262791,go_up
42:46.8,32.90793233,-80.10048089,31.118,36.989,1019.052,247.37447,347.015584,7.016508,20.710419,16.011227,80.648178,0.2696,0.239636,0.995014,0.290193,0.584512,-0.132676,go_up
42:46.9,32.90793233,-80.10048089,31.172,36.65,1019.04,241.87319,350.421192,9.35594,19.241873,15.627482,81.557236,0.116859,0.187921,0.495192,0.145723,0.33589,-0.676957,go_up
42:47.1,32.90793233,-80.10048089,31.225,37.836,1019.046,257.647027,351.639801,11.87183,17.198507,16.373913,82.140038,0.193472,0.141548,0.903872,0.467344,0.026181,0.424127,go_up
42:47.3,32.90793233,-80.10048089,31.225,36.484,1019.022,265.166191,351.076561,5.881727,17.255594,15.698049,83.18515,0.043398,0.062155,1.077627,0.241018,-0.323539,-0.439942,go_up
42:47.4,32.90792077,-80.10049325,31.083,36.886,1019.014,269.115536,349.373361,6.258302,17.767166,14.161878,83.901825,0.059884,0.082064,0.719637,0.477117,-0.296356,0.028592,go_up
42:47.6,32.90792077,-80.10049325,31.118,36.796,1019.012,277.484341,348.649069,7.926376,19.002069,13.697832,83.386826,0.083159,0.18865,0.843922,0.119761,-0.187622,0.291264,go_up
42:47.8,32.90792077,-80.10049325,31.065,38.175,1019.016,278.450758,350.831306,10.236039,20.011803,13.851816,82.759422,0.333606,0.258088,1.111989,-0.210411,0.90094,-0.182767,go_up
42:47.9,32.90792077,-80.10049325,31.083,36.756,1019.015,272.75395,352.248332,7.005774,18.312565,14.398345,83.906387,0.174319,0.043217,0.767889,0.056231,-0.303686,-0.34709,go_up
42:48.1,32.90792077,-80.10049325,31.136,37.431,1019.008,272.330062,351.559384,6.648928,17.069023,15.149898,84.154495,0.176016,0.189378,0.781048,-0.001017,-0.078522,-0.064775,go_up
42:48.3,32.90792077,-80.10049325,31.136,36.969,1019.005,274.212018,349.857193,6.333433,17.15295,15.626856,83.57061,0.094554,0.273627,1.076653,-0.712064,-0.035761,0.697585,go_up
42:48.5,32.90792077,-80.10049325,31.047,36.853,1019.016,284.99076,350.327064,3.632403,17.584494,15.172182,84.17585,-0.000741,0.002428,0.837586,-0.15862,0.287387,0.295941,go_up
42:48.6,32.90792077,-80.10049325,31.065,36.903,1019.027,292.259092,351.576178,2.248042,17.799704,13.651063,84.315971,0.118798,0.197633,0.69941,0.009761,-0.029769,0.123756,go_up
42:48.8,32.90792077,-80.10049325,31.136,37.002,1019.033,301.268282,350.939129,2.93528,18.636789,12.543867,84.380554,0.185714,0.199333,1.071535,0.216539,-0.204782,-0.30385,go_up
42:49.0,32.90792077,-80.10049325,31.118,36.816,1019.024,294.493438,348.474655,5.902315,18.915779,11.642056,84.859886,0.251174,0.133293,0.693318,0.10078,0.413108,-0.059198,go_up
42:49.1,32.90792077,-80.10049325,31.065,36.972,1019.02,287.396995,348.716192,9.621074,18.091625,11.593814,85.189316,0.051641,0.178695,0.5432,0.217761,-0.005945,0.114899,go_up
42:49.3,32.90792161,-80.10050379,31.047,37.477,1019.01,300.147196,349.419427,9.655311,18.077425,11.842995,85.114052,0.168015,0.082064,1.03035,-0.035443,0.130583,0.351914,go_up
42:49.5,32.90792161,-80.10050379,31.012,37.079,1019.023,303.93108,349.82966,8.432328,18.315798,9.851843,85.627914,0.048732,0.012382,1.173888,0.721114,-0.339172,-0.374404,go_up
42:49.6,32.90792161,-80.10050379,31.118,36.979,1019.02,305.50637,348.587269,11.496293,18.848122,9.907982,85.023216,0.096251,0.117026,0.485444,0.176527,-0.045346,0.086799,go_up
42:49.8,32.90792161,-80.10050379,30.905,37.892,1019.017,315.8921,348.168303,10.16412,19.690025,10.655118,83.892693,0.173349,0.180638,1.020846,-0.169833,-0.197452,0.148191,go_up
42:50.0,32.90791761,-80.10051616,30.799,34.265,1019.024,324.173544,354.153592,5.591268,20.405176,11.18052,82.689087,0.150559,-0.172477,1.592559,0.246472,0.108592,-0.121201,go_up
42:50.2,32.90791761,-80.10051616,30.888,36.962,1019.025,323.634362,356.483003,5.278425,20.13899,11.421357,82.782936,0.129466,0.102701,0.57683,0.143846,-0.021522,-0.086381,go_up
42:50.3,32.90791761,-80.10051616,30.834,37.172,1019.028,323.840736,356.041902,4.713541,19.585802,12.488764,82.88121,0.14377,0.159758,0.816141,0.044373,0.168025,0.117582,go_up
42:50.5,32.90790605,-80.10052853,30.941,36.703,1019.035,336.365997,357.430345,5.491762,19.631964,13.049982,83.376801,0.130678,0.145676,1.438055,-0.983102,0.044936,0.930033,go_up
42:50.7,32.90790605,-80.10052853,31.047,35.896,1019.034,341.354625,358.123394,5.454471,19.483175,12.190506,83.851257,0.056975,0.126495,0.700872,0.121953,0.197041,0.424848,go_up
42:50.8,32.90790605,-80.10052853,30.852,36.929,1019.049,347.166176,358.756877,5.950635,19.798389,11.283738,83.974998,0.081947,0.223126,0.683813,-0.160408,-0.10741,0.160073,go_up
42:51.0,32.90790605,-80.10052853,30.763,36.933,1019.044,350.535538,355.874124,8.227812,20.45447,10.12813,83.945015,0.297966,0.343066,1.077627,0.309958,-0.345036,-0.101988,go_up
42:51.2,32.90790605,-80.10052853,30.71,36.989,1019.049,333.428631,354.858336,9.707674,21.196529,9.932987,83.07869,0.204382,0.069924,0.836124,-0.080996,0.449089,-0.51249,go_up
42:51.3,32.90790605,-80.10052853,30.692,37.148,1019.054,328.056892,358.378758,10.484831,21.291395,10.996663,82.523689,0.064976,0.28868,0.65457,-0.016872,0.105506,-0.092166,go_up
42:51.5,32.90790605,-80.10052853,30.604,36.537,1019.051,337.364398,0.955071,11.208848,20.60803,12.098542,83.030838,0.172379,0.232595,1.117837,-0.231591,0.075574,0.357431,go_up
42:51.7,32.90790605,-80.10052853,30.692,37.268,1019.047,339.113529,359.692713,14.526166,20.305183,11.272786,83.575424,-0.077013,0.16607,0.875115,0.373776,0.086569,0.183639,go_up
42:51.9,32.90790689,-80.10053906,30.639,36.876,1019.049,340.704007,358.481843,15.313911,20.681408,10.21841,83.156563,0.061096,0.178695,0.521999,-0.134911,-0.093541,-0.149414,go_up
42:52.0,32.90790689,-80.10053906,30.639,36.604,1019.041,346.58973,357.638388,13.548081,21.267385,9.595723,83.509453,0.194442,0.147375,0.995989,-0.066578,-0.037915,-0.130086,go_up
42:52.2,32.90790689,-80.10053906,30.781,36.896,1019.057,354.080245,1.25071,7.490364,21.487242,8.787762,83.487511,0.251416,-0.126644,1.25382,0.294443,-0.216898,-0.615113,go_up
42:52.4,32.9079029,-80.10055143,30.799,37.035,1019.053,345.843418,2.218351,5.578644,20.363483,7.718215,84.027115,0.181592,0.057299,0.622402,0.293527,0.09953,-0.408335,go_up
42:52.5,32.9079029,-80.10055143,30.692,36.67,1019.043,339.406816,0.859873,4.409452,19.540163,7.688973,84.254509,0.189835,0.14689,0.767158,0.16158,0.211013,0.373573,go_up
42:52.7,32.9079029,-80.10055143,30.621,37.351,1019.053,346.860549,1.376702,0.090437,19.815247,7.144798,84.483208,0.163651,-0.166928,1.508727,-0.324058,0.291953,0.311875,go_up
42:52.9,32.9079029,-80.10055143,30.604,36.873,1019.067,347.492658,2.563018,358.586961,19.430775,6.354705,84.592682,-0.011354,0.072109,0.664561,0.086138,-0.032111,-0.030209,go_up
42:53.0,32.9079029,-80.10055143,30.55,36.826,1019.076,349.587494,2.552703,359.974303,19.272247,6.673041,84.379745,0.062551,0.198604,0.724998,-0.040219,-0.070016,0.058777,go_up
42:53.2,32.9079029,-80.10055143,30.444,36.717,1019.078,353.529688,2.21185,2.697844,19.674948,6.693156,84.485336,0.221111,0.292808,1.171938,-0.318773,0.585137,0.607945,go_up
42:53.4,32.90789134,-80.1005638,30.533,37.055,1019.065,0.425265,3.696553,3.686312,19.589472,6.666744,84.532242,0.103282,-0.026052,0.986729,-0.225922,0.379276,-0.113487,go_up
42:53.6,32.90789134,-80.1005638,30.497,37.902,1019.07,357.502874,6.359179,5.543536,19.203695,6.945337,85.02269,-0.011108,0.308832,0.62094,0.081954,-0.022979,0.085044,go_up
42:53.7,32.90789134,-80.1005638,30.408,36.756,1019.083,4.645809,7.553866,9.366275,18.88763,7.78093,85.004539,0.032488,0.213657,1.133922,0.266436,-0.138738,0.534335,go_up
42:53.9,32.90789134,-80.1005638,30.337,37.109,1019.088,5.833562,6.731869,13.557651,19.147264,6.706436,85.104866,-0.075779,0.133293,0.84246,0.226424,0.041162,0.055112,go_up
42:54.1,32.90789134,-80.1005638,30.462,36.57,1019.073,9.084271,4.924433,15.392583,19.483793,5.602565,84.981178,0.120981,0.11387,0.531015,0.036139,0.078119,0.427434,go_up
42:54.2,32.90789134,-80.1005638,30.479,36.946,1019.065,18.493007,0.645504,13.587855,19.893745,4.208328,84.290756,0.202442,0.146647,1.003056,-0.403073,-0.361093,-0.099132,go_up
42:54.4,32.90789134,-80.1005638,30.533,36.617,1019.066,22.977562,359.207545,7.59082,20.554745,2.149003,83.961349,0.267903,-0.16524,1.595483,0.468021,0.59766,0.285408,go_up
42:54.6,32.90789134,-80.1005638,30.533,36.534,1019.075,19.104562,2.482888,7.719985,20.777361,2.02371,83.725655,0.093584,-0.012544,0.784704,0.374559,-0.007402,-0.375854,go_up
42:54.7,32.90789134,-80.1005638,30.337,36.986,1019.066,18.007005,2.297788,8.399956,20.899319,3.648578,84.261665,0.089705,0.270714,0.684788,-0.148953,0.132181,0.484855,go_up
42:54.9,32.90789134,-80.1005638,30.479,36.886,1019.064,28.266314,4.403541,10.472214,21.715935,3.617271,84.392311,0.03467,0.330926,1.176081,0.017813,0.256797,1.175133,go_up
42:55.1,32.90789134,-80.1005638,30.462,36.667,1019.058,33.786805,4.250313,16.719149,21.903387,1.286565,85.284744,0.064491,0.202975,0.613629,-0.027391,0.584527,0.485466,go_up
42:55.3,32.90789134,-80.1005638,30.479,36.727,1019.051,41.98993,3.528662,18.075421,20.2882,-0.995787,86.394714,0.178198,0.153931,0.629713,-0.184994,0.080563,0.67514,go_up
42:55.4,32.90788818,-80.1005867,30.391,36.972,1019.063,46.251893,0.818031,16.583424,18.757374,-3.602736,87.407524,0.222808,0.173597,1.019384,-0.021893,-0.146374,-0.745427,go_up
42:55.6,32.90788818,-80.1005867,30.355,37.055,1019.059,45.490918,4.751039,12.862273,18.160521,-4.669146,86.945023,0.169712,-0.172718,1.165115,0.361731,-0.099337,-1.014208,go_up
42:55.8,32.90788818,-80.1005867,30.178,36.551,1019.052,36.368053,4.548886,11.025624,18.214254,-3.639457,87.549133,0.040246,0.108285,0.613872,0.082565,-0.212958,-0.425945,go_up
42:55.9,32.90788818,-80.1005867,30.195,37.251,1019.06,36.361219,2.914861,9.089238,18.788807,-2.349843,86.990372,0.065218,0.208559,0.901435,-0.308389,0.191129,0.326947,go_up
42:56.1,32.90788818,-80.1005867,30.142,36.703,1019.064,39.555746,5.084278,1.076242,19.431231,-3.902921,86.718369,-0.060722,-0.09239,1.422459,0.509865,-0.073681,-0.446103,go_up
42:56.3,32.90788818,-80.1005867,30.142,36.873,1019.075,39.583921,5.057759,1.452216,19.531412,-5.742284,86.043571,0.020608,-0.041732,0.676746,0.11769,-0.175084,0.383452,go_up
42:56.4,32.90788986,-80.10060778,30.107,36.607,1019.074,41.22832,6.570546,4.955237,19.102976,-7.188024,85.692955,0.185229,0.28601,0.681133,0.113719,0.488926,0.348327,go_up
42:56.6,32.90788986,-80.10060778,30.178,36.737,1019.077,48.300069,7.581158,4.655954,18.465319,-7.44038,86.133514,0.306209,-0.304427,2.019272,-0.075038,0.823986,0.988208,go_up
42:56.8,32.90788986,-80.10060778,30.036,36.843,1019.072,46.370363,11.734087,1.332931,18.393873,-7.202113,86.12851,0.052853,0.036176,0.841241,0.076762,0.025279,-0.416171,go_up
42:56.9,32.90788986,-80.10060778,30,37.039,1019.073,44.488652,10.855571,3.012528,19.112848,-5.365125,86.468697,0.152256,0.239151,0.530772,-0.384441,0.147452,0.008686,go_up
42:57.1,32.90788986,-80.10060778,29.805,36.986,1019.075,47.547419,8.694187,4.45007,20.149744,-4.982933,86.334053,0.038549,0.226768,1.12198,-0.799524,0.019476,1.396572,go_up
42:57.3,32.90788986,-80.10060778,29.947,36.544,1019.068,48.96535,7.554606,6.047022,20.120111,-7.016065,86.110588,0.017699,0.011411,0.732065,-0.166668,-0.078873,0.359933,go_up
42:57.4,32.90788986,-80.10060778,30.018,36.404,1019.064,51.326235,3.044934,8.700012,20.537214,-8.317055,85.458412,0.176501,0.159272,0.566839,0.471075,-0.143319,0.353519,go_up
42:57.6,32.90788986,-80.10060778,29.947,36.654,1019.068,55.887265,358.647773,12.717963,21.235832,-8.938949,84.732697,0.253356,0.132808,0.978199,0.516585,0.12485,-0.09058,go_up
42:57.8,32.90788986,-80.10060778,30.107,37.613,1019.062,57.281702,0.948497,13.15691,21.271788,-8.243434,85.22126,0.284147,-0.00796,0.998182,0.658306,0.07537,-0.866989,go_up
42:57.9,32.9078907,-80.10061832,30.036,36.534,1019.072,55.835075,0.30428,15.652915,20.279482,-6.480319,86.360329,0.184744,0.204431,0.546125,0.122743,-0.068719,0.086875,go_up
42:58.1,32.9078907,-80.10061832,30.053,36.8,1019.079,59.892208,356.699541,14.506137,20.447561,-5.460319,86.448273,0.308876,0.134021,0.883645,-0.045855,-0.267556,0.020597,go_up
42:58.3,32.9078907,-80.10061832,29.965,36.929,1019.073,66.476606,354.648981,8.427291,20.864489,-5.723588,86.230217,0.214565,-0.019298,1.473148,-0.642976,1.009458,0.540137,go_up
42:58.4,32.90789154,-80.10062885,30.16,37.006,1019.067,68.311263,357.316803,3.64573,19.899128,-7.028266,86.401421,0.120011,0.09736,0.677234,0.017369,0.453571,0.133301,go_up
42:58.6,32.90789154,-80.10062885,29.982,36.76,1019.063,70.060228,358.1984,7.221793,18.077469,-7.997719,86.549477,0.083886,0.139849,0.696729,0.274543,0.055287,0.091152,go_up
42:58.8,32.90789154,-80.10062885,30.036,36.823,1019.053,70.42033,357.849757,7.744993,17.14216,-8.321963,87.162529,0.268388,0.257117,1.14172,-0.274014,0.703415,0.152543,go_up
42:58.9,32.90789154,-80.10062885,29.929,36.673,1019.051,69.492401,358.578517,7.569106,15.619097,-9.339408,87.387711,0.130436,0.135478,0.762771,-0.244998,0.487474,-0.049042,go_up
42:59.1,32.90789154,-80.10062885,30.018,36.285,1019.065,67.799251,359.927244,12.202126,15.387102,-10.225515,87.60466,0.083886,0.13305,0.682839,0.368006,0.193648,-0.250933,go_up
42:59.3,32.90789154,-80.10062885,29.911,36.766,1019.061,67.90878,359.019715,12.424276,15.330861,-9.644734,88.021919,0.123405,-0.019298,1.029375,-0.128628,0.049178,-0.03316,go_up
42:59.4,32.90789238,-80.10063939,29.965,36.487,1019.069,70.0749,3.592239,8.58733,15.498734,-10.6131,87.372406,-0.174019,-0.074298,1.178762,0.026838,-0.039398,0.239592,go_up
42:59.6,32.90789238,-80.10063939,30.142,36.976,1019.072,69.721342,3.573179,8.876303,14.248063,-12.867412,86.597931,0.034185,0.158058,0.594864,0.311195,0.103545,0.545635,go_up
42:59.8,32.90789238,-80.10063939,29.965,36.972,1019.083,75.082904,359.067136,11.188955,13.234699,-14.189681,86.547073,0.080734,0.170683,0.869023,0.116329,-0.251673,0.584731,go_up
43:00.0,32.90789238,-80.10063939,29.858,37.381,1019.1,83.380436,3.715879,11.185364,12.941576,-14.72911,86.577034,0.090917,-0.368111,1.999776,-0.410542,0.824977,1.04288,go_up
43:00.1,32.90789238,-80.10063939,29.911,36.78,1019.1,82.762174,8.214565,8.348682,11.731453,-15.285419,87.365852,0.107646,-0.019539,0.809074,-0.058684,0.208919,-0.073477,go_up
43:00.3,32.90789238,-80.10063939,30.036,37.009,1019.108,81.579506,9.312849,9.757832,11.855856,-15.197712,87.88504,0.133345,0.137421,0.749124,0.195436,-0.248619,-0.268648,go_up
43:00.5,32.90789238,-80.10063939,29.84,36.59,1019.104,81.766175,6.775687,11.096587,13.007198,-14.554805,88.620049,0.151529,0.210258,1.008417,-0.828068,-0.045812,0.898104,go_up
43:00.6,32.90789238,-80.10063939,29.769,37.866,1019.11,79.992539,3.494228,12.837877,12.848197,-14.886821,89.463997,0.002182,0.137421,0.600956,0.214679,0.122787,0.118335,go_up
43:00.8,32.90790162,-80.10066047,29.752,36.833,1019.114,82.222849,1.321148,14.6604,12.144203,-15.665075,88.648758,0.081947,0.066525,0.714519,0.121827,0.019856,0.29121,go_up
43:01.0,32.90790162,-80.10066047,29.627,36.471,1019.12,85.013275,2.598157,13.919721,11.77428,-16.297525,88.198029,0.126314,0.141305,1.123199,0.121522,0.249847,-0.084472,go_up
43:01.1,32.90790162,-80.10066047,29.769,36.428,1019.119,85.443044,1.396622,12.869384,10.410881,-16.757946,88.518761,0.320271,-0.007478,0.971376,0.633427,0.156385,-0.769252,go_up
43:01.3,32.90790162,-80.10066047,29.663,37.414,1019.124,81.870623,0.690697,15.118081,9.716475,-15.578513,88.908516,0.120738,0.173839,0.550999,0.280347,0.046735,-0.666932,go_up
43:01.5,32.90791002,-80.10067101,29.61,36.846,1019.123,81.555689,358.675246,15.470708,11.177911,-13.994242,89.682968,0.12389,0.025736,0.992334,0.177581,-0.005479,0.044475,go_up
43:01.6,32.90791002,-80.10067101,29.468,36.66,1019.134,87.704492,358.672217,8.049001,12.52266,-13.078707,89.766548,0.056975,-0.090701,1.495324,-0.756432,0.086456,0.778429,go_up
43:01.8,32.90791002,-80.10067101,29.681,36.936,1019.143,88.769045,359.522954,6.304806,11.908589,-13.530968,89.073654,0.073461,0.073566,0.584872,0.076177,-0.018613,0.308368,go_up
43:02.0,32.90791002,-80.10067101,29.574,37.055,1019.155,90.377712,357.580616,5.836815,11.410535,-14.083304,88.815895,0.131648,0.134021,0.854645,-0.180692,-0.087946,0.123276,go_up
43:02.1,32.90791002,-80.10067101,29.503,37.016,1019.161,86.783127,354.099761,8.963475,12.283352,-15.055794,88.34375,0.177713,0.20953,0.956998,0.430174,-0.258988,-0.286004,go_up
43:02.3,32.90791002,-80.10067101,29.556,37.182,1019.168,79.32484,353.39911,15.407616,13.356753,-15.063883,87.94001,0.172379,0.14082,0.809317,0.694984,0.521698,-0.437804,go_up
43:02.5,32.9079157,-80.10067972,29.681,37.165,1019.168,78.117946,354.355644,19.885891,14.375888,-13.936638,88.028679,0.162196,0.218028,0.450595,0.079842,0.305451,-0.055402,go_up
43:02.6,32.9079157,-80.10067972,29.645,36.849,1019.161,80.399694,355.740201,20.369668,14.697329,-12.829811,88.640991,0.121708,0.172383,1.097123,0.029751,0.525668,0.396028,go_up
43:02.8,32.9079157,-80.10067972,29.698,36.886,1019.17,82.793326,0.31529,14.889201,13.28145,-14.097034,88.884842,0.004122,-0.135569,1.25114,0.222479,0.073933,-0.770114,go_up
43:03.0,32.9079157,-80.10067972,29.734,36.145,1019.163,81.740562,0.550718,14.628518,11.700103,-14.131656,89.106895,0.04267,0.090319,0.565377,0.181857,-0.165831,0.548744,go_up
43:03.2,32.9079157,-80.10067972,29.823,35.949,1019.152,87.181067,357.710816,13.397385,11.178946,-14.093456,89.203377,0.139164,0.155144,0.817847,-0.319358,0.102033,0.521866,go_up
43:03.3,32.9079157,-80.10067972,29.769,37.175,1019.147,87.895034,355.839145,15.157433,10.346852,-15.179139,88.978622,0.278328,0.30082,1.230669,-0.519417,0.084013,0.184363,go_up
43:03.5,32.9079157,-80.10067972,29.752,37.381,1019.152,86.692436,357.716494,17.401338,9.60333,-15.16517,89.640327,0.112737,0.042731,0.815897,0.124741,0.221152,-0.193763,go_up
43:03.7,32.9079157,-80.10067972,29.752,36.866,1019.155,85.470692,359.907069,18.220882,9.556791,-14.188444,90.217224,0.147407,0.189135,0.605099,0.02181,-0.028387,-0.30097,go_up
43:03.8,32.90791654,-80.10069025,29.539,36.092,1019.164,87.052837,359.098411,17.502402,10.168011,-14.200881,90.781189,0.03564,0.101487,1.289644,-0.283928,-0.201261,0.479105,go_up
43:04.0,32.90791654,-80.10069025,29.663,36.929,1019.163,84.368928,359.524882,19.1482,9.951996,-14.831799,89.83474,-0.001234,0.14689,0.714275,0.196823,0.142045,-0.061816,go_up
43:04.2,32.90791654,-80.10069025,29.627,37.135,1019.164,85.039202,358.260671,20.110616,9.194839,-14.684068,89.599594,0.108616,0.148103,0.543931,0.107942,0.035754,0.276603,go_up
43:04.3,32.90791654,-80.10069025,29.556,37.112,1019.161,89.395449,356.810539,18.621657,8.404604,-15.052609,89.03241,0.183532,0.128194,1.031569,-0.177027,-0.03419,0.173673,go_up
43:04.5,32.90792494,-80.10070079,29.769,37.175,1019.165,90.242392,358.463709,14.799492,8.444237,-15.452468,88.725693,0.270812,-0.048245,1.549912,-0.252774,0.518338,0.227734,go_up
43:04.7,32.90792494,-80.10070079,29.716,37.029,1019.173,93.552944,0.014266,10.997264,7.761865,-15.844166,89.054466,0.152498,-0.028223,0.738889,0.061516,-0.242495,-0.658631,go_up
43:04.8,32.90792494,-80.10070079,29.734,37.285,1019.17,90.308065,359.1646,11.288896,8.565757,-15.392162,89.701935,0.144498,0.150046,0.803712,0.157117,0.082485,-0.422837,go_up
43:05.0,32.90792494,-80.10070079,29.574,37.165,1019.163,88.315008,356.660415,12.58206,10.180139,-14.545655,89.855591,0.093827,0.202003,1.131241,-0.6984,-0.040298,0.498958,go_up
43:05.2,32.90792494,-80.10070079,29.645,37.195,1019.161,86.649508,356.559536,13.325273,11.120212,-14.495795,89.514153,-0.092563,0.098331,0.635805,0.045023,0.028424,0.257667,go_up
43:05.4,32.90793902,-80.10072004,29.539,37.148,1019.169,87.468099,355.859936,13.014698,10.97399,-14.528748,88.897942,0.128254,0.141791,0.710864,-0.082953,-0.022889,0.3945,go_up
43:05.5,32.90793902,-80.10072004,29.539,36.972,1019.17,88.790171,353.31548,13.204025,11.027822,-15.191567,88.470589,0.211655,0.185008,1.060325,0.717586,-0.288921,-0.244159,go_up
43:05.7,32.90793902,-80.10072004,29.681,37.006,1019.171,85.993523,354.111689,18.241098,11.188252,-14.933253,88.409561,0.23493,0.135235,0.846359,0.484541,0.461222,-0.41795,go_up
43:05.9,32.90793902,-80.10072004,29.645,36.946,1019.178,84.233957,354.970858,20.323909,10.823153,-13.579649,89.071213,0.142801,0.206859,0.501284,-0.165726,0.108753,-0.249352,go_up
43:06.1,32.90793902,-80.10072004,29.645,36.989,1019.162,83.524621,356.474528,19.978549,12.073284,-12.543024,89.916779,0.08025,0.099059,1.085669,-0.030419,0.240089,-0.107936,go_up
43:06.2,32.90793902,-80.10072004,29.681,37.172,1019.17,83.864765,358.622088,14.207625,12.046308,-13.145635,90.250282,-0.041715,-0.088047,1.161216,0.650696,0.106004,-0.603348,go_up
43:06.4,32.90793902,-80.10072004,29.645,37.623,1019.166,83.062805,358.098017,15.59737,11.335591,-13.509694,90.121475,0.059399,0.137906,0.556604,0.167196,-0.110548,0.84593,go_up
43:06.6,32.90793902,-80.10072004,29.663,37.311,1019.167,90.253198,355.010094,15.749339,10.419783,-13.935555,89.471146,0.179895,0.198604,0.876578,-0.338295,0.0046,0.732309,go_up
43:06.7,32.90793902,-80.10072004,29.645,36.511,1019.161,91.179351,354.638984,16.836077,9.898815,-14.701671,89.133034,0.359547,0.27824,1.123686,-0.314777,0.732446,-0.037381,go_up
43:06.9,32.90793985,-80.10073058,29.645,37.401,1019.163,90.310865,0.273758,18.217872,8.860615,-14.980528,89.437279,0.132375,0.065554,0.862931,-0.135488,0.292623,-0.47751,go_up
43:07.1,32.90793985,-80.10073058,29.716,37.328,1019.156,87.202432,2.054945,16.235085,8.512379,-14.499817,89.953659,0.129709,0.150289,0.720368,-0.273238,-0.215311,-0.537985,go_up
43:07.3,32.90793985,-80.10073058,29.681,37.334,1019.158,85.793993,1.468334,15.023669,9.748487,-14.449621,90.19162,-0.015304,0.047345,1.211173,0.113792,-0.291277,-0.056347,go_up
43:07.4,32.90794826,-80.10074112,29.681,37.205,1019.161,83.882332,1.435233,16.090375,10.410977,-14.611917,89.84951,-0.095279,0.055599,0.958703,0.395706,0.022097,0.247864,go_up
43:07.6,32.90794826,-80.10074112,29.734,37.657,1019.17,83.714275,358.813633,17.482593,9.442728,-14.57525,90.107506,0.134315,0.11824,0.543688,0.211836,-0.385045,0.289097,go_up
43:07.7,32.90794826,-80.10074112,29.698,36.607,1019.182,87.358044,353.357271,16.634612,9.002023,-14.703289,90.305405,0.230809,0.13038,0.868536,-0.160792,-0.275089,0.349573,go_up
43:07.9,32.90794826,-80.10074112,29.645,37.394,1019.182,89.993568,356.941078,9.607249,9.974211,-15.358104,88.734962,0.264751,-0.159933,1.593777,-0.181867,0.470472,-0.208452,go_up
43:08.1,32.90794826,-80.10074112,29.716,37.633,1019.191,89.517914,0.172849,9.076712,10.292439,-15.690956,88.619499,0.142073,-0.002171,0.744007,0.294914,-0.167577,-0.657744,go_up
43:08.2,32.90794826,-80.10074112,29.681,37.261,1019.186,87.157715,0.347505,9.344425,10.784476,-14.347577,88.978828,0.134315,0.153445,0.763259,-0.14155,-0.191095,-0.313521,go_up
43:08.4,32.90795309,-80.10073929,29.734,38.168,1019.183,86.929942,357.80097,9.229733,12.2342,-13.011374,88.543991,0.083401,0.238422,1.081039,-0.658342,0.242925,1.072837,go_up
43:08.6,32.90795309,-80.10073929,29.521,37.255,1019.179,89.417066,358.587671,10.44816,12.074289,-13.437415,88.344971,0.011395,0.063126,0.823695,0.042321,0.259418,0.723728,go_up
43:08.8,32.90795309,-80.10073929,29.681,37.321,1019.172,93.8808,357.442113,11.2593,10.983491,-14.59668,88.611824,0.17747,0.138392,0.499091,0.063396,-0.009363,0.320251,go_up
43:08.9,32.90795309,-80.10073929,29.663,37.643,1019.164,95.910391,353.928333,11.137454,10.236347,-16.030401,87.805962,0.255538,0.16,1.124661,0.191677,-0.078696,-0.123848,go_up
43:09.1,32.90795309,-80.10073929,29.627,37.7,1019.146,95.425474,354.548307,12.1926,10.106977,-17.112482,87.588921,0.297239,0.040546,0.914351,0.577744,0.249644,-0.565198,go_up
43:09.3,32.90795309,-80.10073929,29.485,37.766,1019.131,93.387032,354.517174,15.358676,9.611083,-16.524986,88.533638,0.13383,0.146161,0.532965,0.314461,-0.042044,-0.364529,go_up
43:09.4,32.90795309,-80.10073929,29.592,37.537,1019.134,92.173294,352.05191,15.271053,10.398674,-15.096135,89.06871,0.27057,0.13305,0.899241,-0.056334,-0.081139,-0.040465,go_up
43:09.6,32.90795309,-80.10073929,29.556,37.942,1019.129,96.364516,352.539629,12.403366,11.406606,-14.286865,89.149536,0.117101,-0.0275,1.480215,-0.774406,0.613414,0.698988,go_up
43:09.8,32.90795309,-80.10073929,29.645,37.766,1019.122,98.924314,354.547073,9.733213,10.296826,-14.076263,89.422615,0.049944,0.116783,0.650183,0.104018,0.127471,0.385309,go_up
43:09.9,32.9079615,-80.10074983,29.539,37.776,1019.125,101.189983,355.068121,9.987829,9.005814,-14.438915,89.574402,0.145952,0.162671,0.709158,-0.169039,0.008658,0.2836,go_up
43:10.1,32.9079615,-80.10074983,29.556,37.035,1019.119,99.833583,354.247099,9.615116,8.452297,-15.601789,89.083153,0.183289,0.269257,1.073728,0.162967,-0.277227,-0.33368,go_up
43:10.3,32.9079615,-80.10074983,29.556,37.202,1019.132,93.151103,354.575217,13.29509,8.806334,-16.531281,89.009125,0.194442,0.098817,0.886082,0.241463,0.647012,-0.504111,go_up
43:10.4,32.90797473,-80.10075854,29.503,37.61,1019.145,88.655213,356.771149,18.232183,8.838078,-15.856346,88.909164,0.104737,0.216814,0.508108,0.211836,0.070355,-0.328182,go_up
43:10.6,32.90797473,-80.10075854,29.539,37.597,1019.147,88.154199,356.374256,18.465567,9.988301,-14.348389,89.515839,0.131163,0.092261,0.934577,-0.252422,0.053251,-0.014503,go_up
43:10.8,32.90797473,-80.10075854,29.61,37.743,1019.142,94.94105,1.333909,8.98367,10.742727,-14.5195,89.0327,0.027639,-0.281993,1.459988,-0.038008,0.629297,-0.04077,go_up
43:10.9,32.90797473,-80.10075854,29.681,36.856,1019.154,93.807409,2.546941,5.752421,8.668609,-15.950082,89.090004,0.043155,-0.008684,0.736208,0.120206,-0.32182,0.352322,go_up
43:11.1,32.90797473,-80.10075854,29.627,37.497,1019.155,96.061065,1.127148,4.92105,7.637042,-16.92444,88.557259,0.130678,0.174811,0.811754,-0.389256,-0.077169,0.310783,go_up
43:11.3,32.90797473,-80.10075854,29.539,38.095,1019.149,93.957619,359.142796,8.15784,7.42203,-17.54187,88.497841,0.210928,0.311503,1.259913,-0.877948,0.258502,0.100645,go_up
43:11.5,32.90797557,-80.10076907,29.485,37.58,1019.149,91.16302,1.093584,10.04543,7.254791,-16.738619,89.039253,0.048489,0.068225,0.827595,0.140976,0.23987,-0.092083,go_up
43:11.6,32.90797557,-80.10076907,29.574,37.989,1019.147,90.543235,1.401822,10.670525,8.090683,-15.637728,89.661232,0.17844,0.103915,0.637511,0.057441,-0.024287,-0.140818,go_up
43:11.8,32.90797557,-80.10076907,29.45,37.793,1019.154,90.991698,0.493074,9.743209,9.306253,-15.189786,89.986588,0.070067,0.045159,1.126123,-0.23669,-0.043529,0.023505,go_up
43:12.0,32.90797557,-80.10076907,29.503,37.301,1019.151,86.811677,2.688132,10.377817,9.186372,-15.663613,89.709221,-0.160196,0.11217,1.034249,0.134716,0.112852,0.309389,go_up
43:12.1,32.90797557,-80.10076907,29.343,37.102,1019.141,87.6252,0.254264,11.42836,8.43466,-16.259539,88.882591,0.136982,0.105858,0.542713,0.189694,-0.116527,0.301143,go_up
43:12.3,32.90797557,-80.10076907,29.45,37.846,1019.144,92.104445,357.592093,11.121921,8.181496,-16.660833,88.590942,0.20026,0.117754,1.013048,0.119839,-0.164118,0.029716,go_up
43:12.5,32.90797557,-80.10076907,29.361,37.769,1019.145,96.220099,0.654074,7.808207,8.657976,-16.210581,88.807129,0.261842,-0.244844,1.46608,0.253313,0.027693,-0.224709,go_up
43:12.7,32.90797557,-80.10076907,29.414,37.916,1019.142,98.255563,2.309525,5.484822,8.920077,-15.62788,89.232208,0.116374,0.041518,0.705746,-0.002334,-0.149152,-0.434847,go_up
43:12.8,32.90798881,-80.10077778,29.468,38.148,1019.132,96.001027,1.071349,5.00122,9.491148,-14.72197,89.590996,0.210928,0.139606,0.822477,-0.248207,-0.113417,-0.156903,go_up
43:13.0,32.90798881,-80.10077778,29.468,37.969,1019.119,95.396214,359.077177,6.336372,10.316232,-14.367018,89.417755,0.079037,0.179667,1.021333,-0.232936,0.087864,0.453046,go_up
43:13.2,32.90798881,-80.10077778,29.414,38.327,1019.116,94.442897,0.005952,8.424166,10.34815,-14.235373,89.352936,0.004122,0.114841,0.894855,-0.050287,0.140703,0.511383,go_up
43:13.3,32.90798881,-80.10077778,29.503,37.713,1019.107,95.83364,358.804535,9.876189,10.122333,-15.051657,88.804482,0.121223,0.134021,0.548562,0.243539,-0.088982,0.255736,go_up
43:13.5,32.90799805,-80.10079886,29.379,37.872,1019.117,98.691719,357.359457,9.034296,9.500633,-15.935663,88.656876,0.261842,0.078908,1.113938,0.071275,-0.116165,-0.366125,go_up
43:13.7,32.90799805,-80.10079886,29.414,37.467,1019.117,98.584294,0.742255,4.34472,9.918585,-15.798229,88.314323,0.240264,-0.153661,1.398576,0.138776,0.142231,-0.350547,go_up
43:13.8,32.90799805,-80.10079886,29.379,37.949,1019.122,96.771712,3.105384,2.359376,9.941485,-14.540399,88.977562,0.072249,0.072109,0.686494,0.117701,-0.18611,-0.566183,go_up
43:14.0,32.90799805,-80.10079886,29.397,37.73,1019.121,92.012791,2.742882,1.551575,10.771603,-13.537986,89.407661,0.155408,0.174811,0.866586,-0.320595,-0.009569,-0.10895,go_up
43:14.2,32.90799805,-80.10079886,29.45,38.135,1019.121,91.749631,359.46402,1.949731,12.339746,-13.132813,89.316269,0.11007,0.189135,1.084451,-0.793404,-0.020871,0.580717,go_up
43:14.3,32.90799805,-80.10079886,29.397,37.6,1019.122,91.823199,358.809689,3.669418,12.559002,-13.346537,89.653915,-0.038013,0.064583,0.770813,0.135111,0.203012,0.56178,go_up
43:14.5,32.90800646,-80.1008094,29.397,37.288,1019.123,92.793844,357.783765,6.469679,12.423354,-13.587098,89.254143,0.120253,0.162428,0.613872,0.154658,-0.22154,0.294832,go_up
43:14.7,32.90800646,-80.1008094,29.184,38.105,1019.128,93.415445,354.907593,6.822468,13.012444,-14.037453,88.729248,0.232263,0.165342,1.125879,0.283856,-0.167784,-0.336803,go_up
43:14.8,32.90800646,-80.1008094,29.148,38.009,1019.13,97.511701,355.311496,2.55406,13.418931,-14.123473,88.58931,0.356153,-0.090942,0.977224,0.382206,-0.15129,-0.83252,go_up
43:15.0,32.90800646,-80.1008094,29.272,38.082,1019.136,98.485877,354.420915,3.331065,13.486171,-13.128264,89.079056,0.162681,0.141062,0.612166,0.029386,-0.007319,-0.256709,go_up
43:15.2,32.90800646,-80.1008094,29.201,37.813,1019.129,98.554767,354.440541,3.579118,14.230211,-12.512999,89.724884,0.200745,0.131108,0.935552,-0.157845,0.054989,0.129968,go_up
43:15.3,32.90800646,-80.1008094,29.219,37.73,1019.139,101.675453,354.394094,2.353309,14.675532,-11.761695,89.787392,0.154438,0.117754,1.254308,-0.953497,0.374777,0.830631,go_up
43:15.5,32.90800646,-80.1008094,29.219,38.048,1019.14,103.356581,356.266555,2.493438,13.708212,-11.881053,89.909241,-0.015057,0.104644,0.758141,0.237385,0.073315,0.668752,go_up
43:15.6,32.90800646,-80.1008094,29.237,37.995,1019.136,104.978027,356.31481,3.674226,12.466558,-12.3105,89.864616,0.215777,0.212201,0.629713,-0.092177,-0.10689,0.251531,go_up
43:15.8,32.90800646,-80.1008094,29.255,38.191,1019.142,104.131138,353.471471,4.341818,12.430899,-13.421877,89.590836,0.338697,0.233324,1.005737,0.343065,-0.142931,-0.593907,go_up
43:16.0,32.90801213,-80.10081811,29.095,37.853,1019.136,94.803169,352.002491,9.901633,12.399684,-13.900745,89.260078,0.20317,0.239879,0.719149,0.191876,0.272762,-0.465931,go_up
43:16.2,32.90801213,-80.10081811,29.272,38.444,1019.139,90.071016,353.329555,12.601792,13.143102,-13.311352,89.246964,0.144498,0.167527,0.54052,-0.098285,0.141426,-0.457379,go_up
43:16.3,32.90801213,-80.10081811,29.166,38.447,1019.127,89.834446,353.051941,10.399439,14.529026,-13.349892,89.05777,0.178683,0.087648,1.101266,-0.060898,0.067878,0.136192,go_up
43:16.5,32.9080197,-80.10081811,29.13,38.254,1019.132,89.922152,357.564209,6.995793,15.033186,-14.637908,88.122353,-0.026905,-0.035943,1.233593,0.804698,0.282292,-0.401369,go_up
43:16.7,32.9080197,-80.10081811,29.237,38.234,1019.129,89.947922,356.122247,9.17641,14.497746,-15.057336,88.827927,0.108373,0.009954,0.474478,0.217657,-0.287645,0.501795,go_up
43:16.8,32.9080197,-80.10081811,29.077,38.052,1019.135,94.859252,354.580384,7.733206,14.662957,-15.794204,88.782425,0.245598,0.233809,0.925317,-0.363887,0.020536,0.415052,go_up
43:17.0,32.9080197,-80.10081811,29.113,36.946,1019.132,93.129056,352.097171,9.843283,15.349297,-16.411589,89.113251,0.389853,0.374386,1.120031,-0.529431,0.339713,0.200944,go_up
43:17.2,32.9080197,-80.10081811,29.148,38.716,1019.137,92.183286,355.884053,11.044112,15.71425,-16.340292,89.746857,0.130678,0.012868,0.846847,0.003854,0.13599,-0.41603,go_up
43:17.4,32.90803293,-80.10082682,29.166,38.311,1019.136,88.038119,357.126585,9.749538,16.406769,-14.454926,90.551926,0.163651,0.210016,0.691855,-0.260345,-0.07201,-0.26087,go_up
43:17.5,32.90803293,-80.10082682,29.113,38.334,1019.142,85.709011,356.537263,10.811581,17.913397,-13.374786,89.893997,0.072249,0.19739,1.066661,0.130914,-0.384162,-0.108459,go_up
43:17.7,32.90803293,-80.10082682,29.148,38.361,1019.133,81.640821,359.541597,14.556489,18.465101,-13.169524,88.750557,-0.07726,0.144947,0.959435,0.433292,0.032448,0.257144,go_up
43:17.9,32.90803293,-80.10082682,29.272,38.444,1019.129,83.798737,359.190638,16.238667,18.346889,-13.462026,87.497375,0.170682,0.160971,0.517368,0.033175,0.255719,0.479193,go_up
43:18.0,32.90803293,-80.10082682,29.113,38.407,1019.124,88.86824,357.063444,15.300694,17.926704,-14.866103,87.070084,0.196624,0.219242,0.979174,-0.087165,-0.076591,0.264169,go_up
43:18.2,32.90803293,-80.10082682,29.308,37.819,1019.123,95.037848,359.930461,11.639966,17.437212,-16.122679,86.313477,0.208019,-0.170064,1.484358,0.032565,-0.204873,0.051282,go_up
43:18.4,32.90803293,-80.10082682,29.201,38.092,1019.115,93.824478,0.844293,9.906411,16.826279,-15.99688,86.690773,0.255538,0.046616,0.68162,0.135495,-0.014283,-0.411143,go_up
43:18.5,32.90803293,-80.10082682,29.272,38.57,1019.11,91.680967,358.681034,9.877755,17.023205,-14.647246,86.683662,0.195654,0.146161,0.825889,0.076547,-0.234805,-0.333258,go_up
43:18.7,32.90803293,-80.10082682,29.077,39.218,1019.108,92.302043,355.761267,8.018622,17.747562,-12.750983,86.603645,0.299178,0.141062,1.094442,-0.709331,0.145764,0.361602,go_up
43:18.9,32.90804134,-80.10083735,29.077,37.414,1019.112,94.123224,356.761713,7.437258,16.933569,-12.618253,86.221352,-0.023203,-0.026294,0.846359,0.111672,0.109723,0.173761,go_up
43:19.0,32.90804134,-80.10083735,29.095,38.218,1019.116,91.635949,357.895898,5.782232,15.644454,-12.835791,86.382126,0.148619,0.142519,0.711838,0.014954,-0.28663,0.018227,go_up
43:19.2,32.90804134,-80.10083735,29.024,38.019,1019.122,88.877966,357.024012,10.405783,15.190986,-13.127539,86.026306,0.212625,0.285524,1.091762,0.671023,0.308047,-0.27224,go_up
43:19.4,32.90804134,-80.10083735,28.917,38.52,1019.123,87.578926,2.119364,16.960169,14.432963,-12.446461,86.543022,0.178683,0.159515,0.945544,-0.671658,0.884093,0.506613,go_up
43:19.5,32.90804974,-80.10084789,28.953,38.102,1019.13,88.133216,7.616282,15.368431,12.343828,-12.200121,87.820427,0.054065,0.13305,0.677477,-0.032082,-0.257308,-0.477491,go_up
43:19.7,32.90804974,-80.10084789,28.988,38.308,1019.132,87.181067,6.897473,17.603344,11.259611,-12.678584,88.378944,0.058187,0.173354,1.114426,0.266325,-0.11345,0.3878,go_up
43:19.9,32.90804974,-80.10084789,28.953,36.853,1019.142,93.089024,7.054234,13.120571,10.547673,-13.658818,87.577591,0.078068,-0.122302,1.360316,-0.064458,0.16144,0.019448,go_up
43:20.0,32.90804974,-80.10084789,28.953,38.55,1019.139,91.306584,7.826484,12.338098,9.198693,-15.074127,87.129684,0.012365,0.04346,0.679183,0.217761,-0.169955,-0.066378,go_up
43:20.2,32.90804974,-80.10084789,29.024,38.029,1019.136,89.684885,5.884164,10.913672,9.22913,-15.470531,86.689941,0.164136,0.124553,0.845384,-0.215647,-0.100927,-0.238031,go_up
43:20.4,32.90804974,-80.10084789,28.935,38.779,1019.135,83.517921,6.130374,10.368503,9.695842,-15.740438,86.351166,0.166318,0.276541,0.947737,0.317638,0.255513,-0.923422,go_up
43:20.5,32.90805058,-80.10085843,28.953,38.407,1019.131,80.655839,13.155663,12.308388,10.523999,-15.413417,86.77597,0.14377,0.02865,1.047653,-0.111495,1.093009,-0.103641,go_up
43:20.7,32.90805058,-80.10085843,29.024,38.331,1019.126,82.54382,13.321736,11.497554,8.694967,-15.550274,88.181114,0.127284,0.013839,0.618746,0.07789,-0.103149,-0.11275,go_up
43:20.9,32.90805058,-80.10085843,29.077,38.912,1019.123,86.749461,13.128634,14.231092,7.692658,-15.790885,89.394264,-0.024684,0.139606,0.969913,0.048874,0.685783,0.997498,go_up
43:21.0,32.90805058,-80.10085843,29.095,38.929,1019.112,90.45684,12.724735,14.724303,5.457672,-17.368292,89.630798,-0.057019,0.012625,1.069829,0.400427,-0.078715,0.038745,go_up
43:21.2,32.90805058,-80.10085843,28.971,38.67,1019.105,90.871678,10.011515,15.055004,3.168725,-18.355322,89.27198,-0.031842,-0.020022,0.672847,0.179294,-0.321534,0.231473,go_up
43:21.4,32.90805058,-80.10085843,28.935,38.347,1019.109,88.771921,9.475311,13.106397,2.325503,-18.176075,89.895416,-0.02419,0.205645,0.741082,-0.267554,0.314072,-0.111528,go_up
43:21.5,32.90805058,-80.10085843,29.006,38.407,1019.114,85.123616,8.687218,11.986457,2.529425,-18.859938,90.038963,0.029336,0.201032,1.022796,0.079723,-0.246092,-0.367481,go_up
43:21.7,32.90805058,-80.10085843,29.059,38.321,1019.1,83.13668,9.29204,10.278509,3.331301,-20.03335,89.357483,0.152256,-0.085635,1.119543,1.170117,0.035822,-1.434052,go_up
43:21.9,32.90806382,-80.10086714,29.024,38.367,1019.098,79.060348,8.605008,14.288529,5.376921,-18.192669,89.788277,0.08922,0.068953,0.499822,0.145696,0.074001,-0.36351,go_up
43:22.0,32.90806382,-80.10086714,28.882,38.374,1019.097,76.214126,10.021412,17.042241,7.622305,-15.703236,90.628181,0.032003,0.000728,0.81809,0.027188,0.36233,-0.750493,go_up
43:22.2,32.90806382,-80.10086714,28.9,38.288,1019.096,71.177367,12.375552,13.451914,8.839038,-14.141229,91.981529,-0.107127,0.111199,1.093955,-0.618802,0.227023,-0.032421,go_up
43:22.4,32.90807222,-80.10087768,28.917,38.776,1019.099,67.021177,13.069938,10.982999,9.871129,-12.889995,92.476074,0.050429,-0.00796,0.908989,0.059564,0.473202,-0.540356,go_up
43:22.5,32.90807222,-80.10087768,28.953,38.719,1019.101,57.922285,13.100929,9.145242,10.959729,-10.779435,92.696854,0.107646,0.0539,0.81346,0.1909,-0.178897,-1.561417,go_up
43:22.7,32.90807222,-80.10087768,28.917,38.862,1019.095,42.401224,11.585219,5.877699,13.08022,-7.174312,91.830162,0.102797,-0.073574,0.937989,0.156081,-0.068636,-2.238561,go_up
43:22.9,32.90807222,-80.10087768,28.775,38.344,1019.103,16.080536,11.561092,359.849913,14.035077,-1.176071,91.439522,0.060611,-0.182126,1.031569,0.03513,-0.029235,-2.212294,go_up
43:23.0,32.90807222,-80.10087768,28.775,38.567,1019.1,350.789293,10.32372,356.47984,12.857474,5.822459,91.201248,0.11104,-0.087083,0.956266,0.297191,-0.057945,-1.826227,go_up
43:23.2,32.90807222,-80.10087768,28.651,38.666,1019.109,329.837564,5.4611,356.685011,10.267825,12.40076,90.323479,0.16947,0.015782,0.894611,0.127676,-0.407971,-1.404425,go_up
43:23.4,32.90807222,-80.10087768,28.598,38.55,1019.106,311.634905,359.844578,357.682756,7.934037,17.486326,89.249176,-0.010614,0.113141,0.917519,0.324069,-0.214938,-1.289276,go_up
43:23.6,32.90807222,-80.10087768,28.438,38.48,1019.108,302.33912,358.096523,359.367453,4.952229,21.952627,87.898888,-0.02888,0.030835,0.8583,-0.280077,0.103323,-0.956049,go_up
43:23.7,32.90807222,-80.10087768,28.332,38.66,1019.12,292.942316,359.692973,358.729477,1.404054,23.883186,87.211021,-0.058253,0.209044,0.85562,-0.092541,0.108515,-0.984455,go_up
43:23.9,32.90807222,-80.10087768,28.385,38.228,1019.121,286.593949,359.231005,359.724807,-2.468653,24.04611,87.800819,0.047277,0.218756,0.940182,0.158219,-0.313898,-0.727586,go_up
43:24.1,32.90807222,-80.10087768,28.278,37.285,1019.125,274.526787,359.280143,1.453024,-5.71299,24.568085,87.992004,0.162439,0.091533,1.05009,0.427305,-0.227461,-1.252625,go_up
43:24.2,32.90807222,-80.10087768,28.243,38.308,1019.133,259.264989,357.235451,2.17338,-9.315944,24.138342,87.476662,0.092129,0.097117,0.705015,0.172574,0.032463,-1.082499,go_up
43:24.4,32.90807222,-80.10087768,28.225,38.155,1019.132,250.063208,356.49982,5.271286,-13.491049,23.418064,87.028831,0.017456,0.122367,0.856594,0.417531,-0.014879,-0.29265,go_up
43:24.6,32.90807222,-80.10087768,28.403,38.105,1019.132,249.466816,357.349275,3.252321,-15.113781,23.571232,86.463173,-0.123911,-0.060306,1.371526,-0.802977,-0.064665,0.040577,go_up
43:24.7,32.90807222,-80.10087768,28.403,37.6,1019.137,250.214504,359.638377,1.246439,-15.775128,23.470606,86.354019,-0.162912,0.131351,0.714275,-0.097175,-0.060527,0.021014,go_up
43:24.9,32.90807222,-80.10087768,28.474,38.706,1019.13,252.556289,359.026747,0.723387,-15.874041,22.882065,86.349022,-0.000494,0.156601,0.72646,-0.324111,-0.258142,0.119363,go_up
43:25.1,32.90807222,-80.10087768,28.598,38.527,1019.133,246.59589,356.771591,359.465638,-14.502271,21.081419,86.995598,0.026911,0.16,1.127098,0.264152,-0.311593,-0.615508,go_up
43:25.2,32.90807222,-80.10087768,28.651,38.543,1019.123,243.298281,359.886054,358.718685,-14.264951,19.957336,88.10276,0.135285,-0.002171,1.024502,0.227805,-0.039758,-0.556254,go_up
43:25.4,32.90805899,-80.10086897,28.722,38.198,1019.118,237.428895,359.188624,0.54892,-15.711771,19.144735,88.700287,0.087038,0.150046,0.59657,0.331652,0.168853,-0.026939,go_up
43:25.6,32.90805899,-80.10086897,28.669,37.607,1019.116,232.557344,358.859744,2.540049,-16.828367,18.629721,88.245331,0.018911,0.168741,0.795914,-0.004564,-0.034073,0.036159,go_up
43:25.7,32.90805899,-80.10086897,28.651,38.703,1019.117,234.53519,0.993665,356.371588,-16.949051,18.524744,88.275513,-0.140943,-0.201182,1.715382,-0.154532,0.187366,0.180934,go_up
43:25.9,32.90805899,-80.10086897,28.74,38.816,1019.124,241.05354,2.997551,354.609417,-16.80023,18.634809,88.273468,0.006546,0.010926,0.634587,0.07943,-0.046596,0.474149,go_up
43:26.1,32.90805899,-80.10086897,28.562,38.553,1019.118,240.988393,2.601393,355.570765,-16.36689,19.210999,87.979202,0.089705,0.2678,0.830275,-0.080006,-0.057591,0.285697,go_up
43:26.2,32.90805899,-80.10086897,28.651,38.371,1019.119,233.211349,359.22445,0.219588,-15.387827,19.69383,87.40966,0.191532,0.277512,1.427333,-0.887264,0.549609,0.345257,go_up
43:26.4,32.90805899,-80.10086897,28.704,38.859,1019.116,229.403054,0.443189,1.009445,-15.819387,20.849606,86.812149,0.117829,0.109014,0.621671,-0.060153,0.269527,-0.369456,go_up
43:26.6,32.90805899,-80.10086897,28.651,38.869,1019.119,221.447878,1.257937,0.919406,-16.649551,20.890356,85.61557,0.136012,0.160486,0.671872,-0.107495,-0.087829,-0.477273,go_up
43:26.7,32.90805899,-80.10086897,28.74,38.676,1019.124,215.340924,0.517367,0.66389,-17.9296,20.104284,86.336594,0.044368,0.223126,1.094199,-0.046714,-0.433273,-0.318449,go_up
43:26.9,32.90805899,-80.10086897,28.846,38.447,1019.116,208.881901,359.620465,7.291757,-19.057915,19.14126,87.117607,-0.176487,0.128923,0.804931,-0.046714,0.13758,0.081974,go_up
43:27.1,32.90805899,-80.10086897,28.687,38.786,1019.118,214.267969,358.475534,6.899668,-20.077494,18.825277,87.452187,-0.023696,-0.058618,0.521024,-0.186602,-0.173656,-0.539582,go_up
43:27.2,32.90805899,-80.10086897,28.758,37.876,1019.122,211.649015,358.609358,2.105664,-19.431206,17.772299,88.304749,0.184986,0.11217,1.054964,-0.385439,0.28938,-0.677332,go_up
43:27.4,32.90805899,-80.10086897,28.704,38.776,1019.122,204.140998,6.588761,351.635825,-20.065954,14.595299,90.139542,0.109828,-0.406224,1.144644,0.775205,0.225545,-0.408551,go_up
43:27.6,32.90805899,-80.10086897,28.669,38.407,1019.121,203.420987,4.956417,354.496889,-23.150787,13.035797,90.069801,0.04364,0.070653,0.613629,0.213209,0.069469,-0.140992,go_up
43:27.7,32.90805899,-80.10086897,28.58,38.822,1019.118,201.981333,7.046931,358.617661,-25.687561,14.27096,88.648483,-0.068373,0.169712,0.781779,-0.006091,0.118643,0.177574,go_up
43:27.9,32.90805815,-80.10085843,28.562,38.683,1019.109,207.379901,7.748274,356.517901,-26.770626,16.03875,86.329628,-0.124405,-0.391027,1.737071,-0.541515,-0.020939,0.503776,go_up
43:28.1,32.90805815,-80.10085843,28.491,38.892,1019.118,211.084008,6.223997,353.754442,-26.514479,17.58601,86.04232,0.03176,0.038361,0.754729,0.120663,-0.232604,-0.029204,go_up
43:28.3,32.90805815,-80.10085843,28.598,39.234,1019.12,210.163941,5.031023,357.388729,-25.802197,19.569933,86.135002,-0.049861,0.211472,0.703309,-0.094111,0.018434,0.037949,go_down
43:28.4,32.90804491,-80.10084972,28.509,39.307,1019.13,203.459058,0.146067,0.177207,-24.047144,21.005192,86.719086,0.254083,0.252747,0.974056,0.230564,-0.43269,-0.772364,go_down
43:28.6,32.90804491,-80.10084972,28.527,38.347,1019.128,195.983662,358.301116,5.014299,-23.752455,20.149641,87.235924,0.127042,0.060698,0.866099,-0.365335,-0.087246,-0.204565,go_down
43:28.8,32.90804491,-80.10084972,28.562,38.852,1019.133,192.596558,357.903903,4.260247,-24.048122,18.149521,88.165199,0.1348,0.14082,0.683082,0.070823,0.269805,-0.361862,go_down
43:29.0,32.90804491,-80.10084972,28.633,38.836,1019.145,190.245866,359.663312,5.257283,-24.212297,16.507328,88.451859,0.041458,0.1617,0.981611,0.214682,0.501934,0.093843,go_down
43:29.1,32.90804491,-80.10084972,28.616,39.058,1019.151,191.358094,5.249907,9.147123,-25.922466,15.434484,88.382462,-0.083184,0.096874,0.887788,0.129771,0.303403,0.189444,go_down
43:29.3,32.90804491,-80.10084972,28.651,39.115,1019.149,193.579873,4.092214,8.650669,-27.249683,15.499205,87.375298,0.050186,0.073809,0.688444,-0.198263,-0.346558,0.158289,turn_left
43:29.5,32.90804407,-80.10083918,28.562,38.401,1019.156,191.67593,2.205062,7.97667,-25.967339,15.505112,87.667435,0.06546,0.170198,0.867804,-0.120072,-0.153525,-0.323378,turn_left
43:29.6,32.90804407,-80.10083918,28.527,38.733,1019.152,183.62341,357.992395,7.00221,-23.974409,14.62207,88.935883,0.293602,-0.062719,1.233837,-0.932218,-0.130922,-0.59338,turn_left
43:29.8,32.90804407,-80.10083918,28.545,38.909,1019.162,181.052131,351.468884,0.205617,-22.341984,12.626038,90.382446,0.217474,0.073323,0.697948,-0.2172,-0.199339,-0.123625,turn_left
43:30.0,32.90804407,-80.10083918,28.545,38.852,1019.153,179.397623,352.446722,2.577695,-20.985825,10.545962,91.537102,0.150074,0.106343,0.746443,0.471551,0.549276,-0.020389,turn_left
43:30.1,32.90804407,-80.10083918,28.562,39.809,1019.153,180.856692,358.506028,6.127942,-21.929516,10.241205,91.051071,0.1011,0.124795,1.200451,-0.386104,0.384648,0.443869,turn_left
43:30.3,32.90804407,-80.10083918,28.58,38.786,1019.161,182.599784,4.092575,6.840987,-25.496338,11.284601,89.309372,-0.119222,0.061427,0.956998,0.071739,0.590204,0.072463,turn_left
43:30.5,32.90804407,-80.10083918,28.651,39.052,1019.172,181.782196,4.375883,6.716941,-28.085691,11.489223,88.110497,-0.021475,0.089833,0.715007,0.202464,-0.158411,-0.329792,turn_left
43:30.7,32.90804407,-80.10083918,28.616,38.872,1019.185,178.563562,3.087056,9.308465,-28.49881,11.317365,88.015846,0,0.141791,1.078115,0.689629,-0.346253,-0.770837,turn_left
43:30.8,32.90804323,-80.10082864,28.456,39.028,1019.178,174.999241,5.418412,12.58888,-28.8936,11.374007,88.481133,-0.010861,0.136449,1.021577,-0.061429,-0.119316,-0.215866,turn_left
43:31.0,32.90804323,-80.10082864,28.509,38.294,1019.174,176.177681,7.330855,10.702052,-29.637848,10.303448,88.993088,0.059157,0.066768,0.769595,0.027452,0.313177,-0.068342,turn_left
43:31.2,32.90804323,-80.10082864,28.385,39.071,1019.169,176.064368,8.48409,11.120794,-30.111946,9.682629,88.81987,-0.010367,0.170683,0.928729,0.197578,0.256366,0.055664,turn_left
43:31.3,32.90804323,-80.10082864,28.527,38.922,1019.17,179.909887,8.270661,7.577777,-30.252495,9.865124,88.192299,-0.127367,0.019423,1.122711,0.50637,-0.129701,-0.192347,turn_left
43:31.5,32.90803483,-80.10081811,28.491,39.002,1019.174,181.797496,10.334278,7.100554,-30.949797,9.771529,88.067062,-0.110582,0.116055,0.729385,-0.007368,-0.045096,0.345214,turn_left
43:31.7,32.90803483,-80.10081811,28.456,38.188,1019.164,185.264391,9.560093,5.791928,-30.728056,9.844887,88.089035,0.016971,0.141062,0.741569,-0.426421,0.18123,0.471358,turn_left
43:31.8,32.90803483,-80.10081811,28.633,38.829,1019.148,180.231689,9.827224,8.203268,-29.835405,9.40809,87.819359,0.196139,0.380456,1.11735,0.373201,0.260031,-0.450132,turn_left
43:32.0,32.90803483,-80.10081811,28.456,38.573,1019.14,176.930422,9.379458,10.851831,-30.631439,9.356501,87.739204,0.106919,0.025736,0.814191,-0.30261,0.012606,-0.06254,turn_left
43:32.2,32.90803483,-80.10081811,28.562,38.859,1019.145,174.526879,9.774576,10.696785,-31.252357,8.570293,87.143196,0.112737,0.159758,0.771788,0.338188,0.123173,-0.633393,turn_left
43:32.3,32.90803483,-80.10081811,28.509,38.959,1019.15,168.458105,9.325527,14.537853,-31.648993,7.336066,87.00293,-0.030854,0.192535,0.941401,0.29054,0.068806,-0.057042,turn_left
43:32.5,32.90803399,-80.10080757,28.438,38.766,1019.139,164.561155,6.13791,10.898285,-30.889856,5.795132,87.755669,-0.01876,0.072109,0.771788,-0.07659,-0.424468,-0.754955,turn_left
43:32.6,32.90803399,-80.10080757,28.385,37.76,1019.137,159.370648,5.466685,11.463267,-29.588314,3.538846,89.444061,-0.093304,0.062398,0.569276,0.414546,0.043149,-0.271456,turn_left
43:32.8,32.90803399,-80.10080757,28.385,38.939,1019.134,158.27999,8.339993,16.429241,-29.447054,2.886824,90.086998,-0.130823,0.355448,1.107602,-0.215562,0.090491,-0.169441,turn_left
43:33.0,32.90803399,-80.10080757,28.332,38.606,1019.135,157.492851,7.648031,16.529457,-29.459309,3.832082,90.410194,0.153953,-0.043662,1.372257,-0.23175,-0.336198,0.290846,turn_left
43:33.1,32.90803399,-80.10080757,28.349,38.982,1019.141,155.386503,5.652785,11.807075,-28.544842,3.886401,91.508926,0.160742,0.07648,0.470335,-0.139815,0.584376,-1.239982,turn_left
43:33.3,32.90803399,-80.10080757,28.332,39.593,1019.139,149.387043,3.859602,8.327192,-28.438389,0.664919,91.354774,0.161469,0.059727,0.983073,0.305506,-0.101015,-0.568336,turn_left
43:33.5,32.90803399,-80.10080757,28.332,39.736,1019.146,146.838535,359.447525,12.411286,-27.106026,-1.429045,91.431419,0.114434,0.226525,1.016216,-0.349952,-0.265032,0.277101,turn_left
43:33.6,32.90803399,-80.10080757,28.385,38.945,1019.142,142.050272,357.548634,17.056024,-25.436396,-2.079815,91.901283,-0.185867,0.182337,0.439629,0.486933,0.155243,-0.06987,turn_left
43:33.8,32.90803231,-80.10078649,28.278,39.978,1019.141,143.24382,356.962427,20.120779,-24.510487,-1.233587,92.433655,0.124375,0.219727,0.561965,0.028784,0.631718,0.932865,turn_left
43:34.0,32.90803231,-80.10078649,28.367,35.122,1019.134,144.099042,356.85886,24.628969,-24.397985,0.417602,92.396652,0.237112,0.240122,0.907283,0.524501,-0.346583,-0.835895,turn_left
43:34.2,32.90803231,-80.10078649,28.296,38.6,1019.143,139.0463,358.959314,28.054462,-24.787643,1.367646,91.934196,0.122678,0.171169,0.794939,-0.019169,0.31529,-0.08392,turn_left
43:34.3,32.90803231,-80.10078649,28.349,38.65,1019.144,138.85985,359.482308,23.669484,-25.65447,0.911566,91.405464,0.183047,0.109257,0.686981,-0.431197,0.235877,-0.114158,turn_left
43:34.5,32.90803631,-80.10077412,28.332,38.723,1019.124,141.089223,359.744314,19.6679,-25.516928,-0.796366,91.017357,0.119041,0.056571,1.205812,-0.088196,0.217551,-0.163638,turn_left
43:34.7,32.90803631,-80.10077412,28.403,39.012,1019.12,146.306764,0.475491,15.342575,-25.803595,-2.089631,90.962318,-0.038013,-0.294296,1.319862,-0.745182,0.605451,0.950275,turn_left
43:34.8,32.90803631,-80.10077412,28.42,39.141,1019.111,155.394754,0.35611,12.444654,-27.027048,-2.125152,90.658005,-0.044924,0.053657,0.622889,-0.046963,0.070638,0.420655,turn_left
43:35.0,32.90803631,-80.10077412,28.349,39.307,1019.12,157.635876,358.677042,10.144289,-27.503923,-1.829028,90.796204,0.040973,0.073081,0.874384,-0.238775,0.049258,0.359568,turn_left
43:35.2,32.90803631,-80.10077412,28.385,38.985,1019.128,157.941158,356.887488,9.119883,-26.81575,-2.317417,90.573341,0.100858,0.016753,1.182417,0.539468,-0.282747,-0.542985,turn_left
43:35.3,32.90803631,-80.10077412,28.261,39.128,1019.128,160.569537,357.174875,9.436037,-25.604807,-2.380482,90.675133,0.078552,-0.131227,0.830763,0.751438,-0.052146,-0.546956,turn_left
43:35.5,32.90804303,-80.10076359,28.207,38.895,1019.124,165.271822,355.804444,7.134625,-24.83919,-1.825207,91.608833,0.183289,-0.00193,0.688444,-0.356672,0.069722,0.471967,turn_left
43:35.7,32.90804303,-80.10076359,28.207,38.856,1019.124,168.771297,355.70877,4.090904,-25.145317,-1.943029,91.295822,0.172379,0.036176,0.941157,0.00182,-0.060957,-0.070988,turn_left
43:35.8,32.90804303,-80.10076359,28.207,38.959,1019.129,166.759096,357.834724,8.955315,-25.348883,-1.859025,90.769058,-0.024684,0.04176,1.151224,0.688432,0.348934,-0.045637,turn_left
43:36.0,32.90804303,-80.10076359,28.119,38.812,1019.14,168.476861,1.365146,12.571233,-26.179623,-0.253438,90.259201,-0.054304,-0.020745,0.716225,0.675299,0.096952,-0.100615,turn_left
43:36.2,32.90804303,-80.10076359,28.19,38.812,1019.139,174.780197,359.901782,11.011451,-27.117001,1.842519,90.142914,0.091645,0.012382,0.704771,-0.642948,-0.034995,0.584776,turn_left
43:36.3,32.90804303,-80.10076359,28.225,38.992,1019.132,176.20634,359.944756,6.822567,-27.512867,2.198452,89.05912,0.028366,0.07478,0.947737,-0.236723,-0.044769,-0.142765,turn_left
43:36.5,32.90804303,-80.10076359,28.243,39.138,1019.121,172.123267,357.541082,8.557942,-27.03031,1.305517,89.383148,0.1685,0.10343,1.024258,0.414765,-0.230167,-0.402993,turn_left
43:36.7,32.90804303,-80.10076359,28.349,39.321,1019.113,166.699837,354.172902,11.77709,-25.909613,0.990202,90.238998,0.103767,0.022823,0.857326,0.398271,0.184305,-0.093895,turn_left
43:36.8,32.90804219,-80.10075305,28.225,39.168,1019.115,166.17129,354.816387,13.806009,-25.09297,1.29107,90.785774,0.141588,0.114113,0.623864,0.09345,0.227066,0.044466,turn_left
43:37.0,32.90804219,-80.10075305,28.243,39.244,1019.123,166.331799,353.269252,12.11887,-24.822893,1.86256,90.547905,0.163651,0.133293,0.868779,-0.239777,-0.407318,-0.034947,turn_left
43:37.2,32.90804219,-80.10075305,28.225,39.088,1019.127,163.66054,354.711153,16.149327,-23.654388,1.819511,91.39341,0.029578,0.178695,1.035224,0.53877,0.1278,-0.120773,turn_left
43:37.3,32.90804219,-80.10075305,28.367,39.237,1019.121,163.267121,357.894988,20.421053,-23.679701,3.067147,92.080536,-0.089601,0.11994,0.773006,0.586112,0.064881,0.37586,turn_left
43:37.5,32.90804976,-80.10075305,28.243,39.208,1019.122,168.020372,354.751097,18.761351,-23.495323,4.415382,92.207779,0.174076,0.112413,0.632393,-0.274902,-0.041715,0.608905,turn_left
43:37.7,32.90804976,-80.10075305,28.403,39.762,1019.128,169.80185,354.430179,17.012382,-23.673985,5.223831,91.60807,0.183532,0.108043,0.938964,0.052522,0.315947,-0.230118,turn_left
43:37.8,32.90804976,-80.10075305,28.491,39.095,1019.135,169.514271,356.856358,15.601754,-24.569363,5.787919,90.753777,0.204624,-0.162827,1.506534,-0.053158,0.286625,0.056377,turn_left
43:38.0,32.90804976,-80.10075305,28.42,39.526,1019.14,173.380636,356.52896,13.203982,-25.7167,6.297051,90.20694,0.105706,-0.02171,0.755217,-0.000038,-0.307315,-0.075983,turn_left
43:38.1,32.90804976,-80.10075305,28.278,39.776,1019.13,173.480535,356.043133,13.515058,-25.524696,6.611467,90.002373,0.173834,0.212201,0.747175,-0.103532,-0.016963,0.000847,turn_left
43:38.3,32.90804976,-80.10075305,28.438,39.178,1019.135,172.945567,357.067352,15.17361,-24.698942,6.748331,90.484215,0.06643,0.084006,1.236518,0.090113,0.210584,0.185634,turn_left
43:38.5,32.90804892,-80.10074251,28.474,39.36,1019.123,179.149319,356.379913,9.436266,-24.487862,7.445982,90.535477,0.206564,-0.168858,0.998426,0.20465,0.242349,-0.285649,turn_left
43:38.6,32.90804892,-80.10074251,28.42,39.52,1019.125,183.6277,356.079577,4.097324,-25.043449,7.358768,90.146797,0.195411,0.131594,0.766183,-0.38453,-0.016047,0.194491,turn_left
43:38.8,32.90804892,-80.10074251,28.243,39.261,1019.115,180.736412,356.060818,2.934692,-25.688236,7.183537,89.667084,0.058429,0.154416,0.856594,-0.125217,-0.080188,-0.395604,turn_left
43:39.0,32.90804892,-80.10074251,28.403,39.732,1019.119,176.368134,356.393472,5.417005,-25.449717,6.333595,89.448982,0.19129,0.126009,1.019384,0.308802,0.191036,-0.427369,turn_left
43:39.1,32.90804892,-80.10074251,28.403,39.636,1019.12,171.24373,359.956407,9.259014,-25.607965,5.113489,89.468506,0.071522,0.131108,0.926535,0.182353,0.582601,-0.294201,turn_left
43:39.3,32.90804892,-80.10074251,28.385,39.676,1019.112,170.118306,359.51524,7.759827,-26.873016,4.303245,89.67215,0.119768,0.069681,0.720368,-0.145681,0.064893,0.201516,turn_left
43:39.5,32.90804892,-80.10074251,28.367,39.254,1019.124,171.952731,0.270384,7.531804,-27.200209,3.429263,90.303223,0.058429,0.108285,0.931409,0.121572,0.275336,0.123936,turn_left
43:39.6,32.90804892,-80.10074251,28.474,39.676,1019.121,174.162188,4.43553,10.565828,-28.039423,4.037263,89.634102,-0.022462,0.054386,1.27161,-0.657892,0.579852,0.907371,turn_left
43:39.8,32.90805292,-80.10073014,28.403,39.636,1019.124,175.709772,6.099809,10.920935,-29.429337,5.756158,88.655426,-0.093057,0.15733,0.794939,-0.266938,-0.152575,0.385998,turn_left
43:40.0,32.90805292,-80.10073014,28.42,39.181,1019.13,172.415053,4.851209,10.257157,-29.162712,6.527362,88.59269,-0.000247,0.168984,0.696729,-0.039085,-0.0078,-0.378195,turn_left
43:40.1,32.90805292,-80.10073014,28.438,39.646,1019.132,167.808951,3.861288,8.685203,-28.62731,5.77671,88.732338,-0.008639,0.160729,1.055451,-0.035115,-0.291547,-0.481736,turn_left
43:40.3,32.90805292,-80.10073014,28.367,39.52,1019.125,168.840241,3.968395,7.825701,-27.98945,4.465925,89.15979,0.137709,-0.144977,1.150493,0.433419,0.120787,-0.277402,turn_left
43:40.5,32.90805208,-80.10071961,28.278,39.683,1019.126,169.275064,3.648583,7.376637,-27.498798,3.433893,89.358513,0.035397,0.078422,0.663099,-0.029617,0.021216,-0.231587,turn_left
43:40.6,32.90805208,-80.10071961,28.349,39.689,1019.136,169.023085,3.33734,5.885539,-27.042225,2.654016,89.551224,0.080734,0.148589,0.986485,-0.1411,-0.031013,0.185328,turn_left
43:40.8,32.90805208,-80.10071961,28.314,38.537,1019.138,168.549644,4.111015,9.480149,-26.717154,2.224741,89.945389,0.024245,0.158058,1.133434,-0.140794,-0.08538,0.249775,turn_left
43:41.0,32.90805208,-80.10071961,28.438,39.467,1019.132,165.956958,3.630006,12.291827,-26.903522,3.00922,89.853043,-0.106139,0.124795,0.680402,0.259017,-0.112258,0.529245,turn_left
43:41.2,32.90805208,-80.10071961,28.314,39.782,1019.134,169.024014,359.797716,12.350826,-26.47546,3.812652,90.305199,0.105222,0.067496,0.649452,0.101108,-0.052699,0.519166,turn_left
43:41.3,32.90805208,-80.10071961,28.367,39.566,1019.121,172.555468,0.834329,10.581306,-25.659029,4.604974,90.829323,0.019153,0.128923,1.00525,-0.272741,0.330619,0.445862,turn_left
43:41.5,32.90805124,-80.10070907,28.367,39.294,1019.12,171.921722,1.982293,13.405491,-25.431868,5.230435,90.274605,0.275176,0.195448,1.046434,0.58919,-0.24787,-0.627428,turn_left
43:41.7,32.90805124,-80.10070907,28.278,40.005,1019.121,168.875553,4.005771,18.101019,-25.612514,6.274793,89.684448,0.078068,0.086677,0.78909,-0.21196,-0.158379,-0.056574,turn_left
43:41.8,32.90805124,-80.10070907,28.296,40.456,1019.114,167.98827,1.871546,17.541235,-25.612175,6.395941,89.705315,0.092614,0.147132,0.76009,0.105389,-0.151816,-0.046389,turn_left
43:42.0,32.90805124,-80.10070907,28.261,39.653,1019.1,170.015593,2.353088,20.063174,-24.961908,6.286487,90.480179,0.01285,0.001942,1.033762,0.641728,0.157587,-0.042113,turn_left
43:42.2,32.90805124,-80.10070907,28.332,39.795,1019.097,177.216812,1.155324,13.197403,-24.823133,8.261936,90.197502,0.126314,0.073323,0.758141,-0.161254,0.30114,0.337235,turn_left
43:42.3,32.90805124,-80.10070907,28.42,39.284,1019.111,179.133623,358.62962,8.155108,-25.737904,9.087904,89.03849,0.17747,0.164613,0.73304,0.294451,0.045798,0.077312,turn_left
43:42.5,32.90805124,-80.10070907,28.349,39.972,1019.12,176.779885,356.451544,12.530593,-25.564688,8.833047,89.208122,0.092614,0.174811,0.838073,0.670744,-0.306365,-0.520115,turn_left
43:42.7,32.90805124,-80.10070907,28.278,39.968,1019.127,168.847112,357.600692,9.34346,-25.298208,9.860656,89.123436,0.28051,-0.167652,1.394677,-0.294117,0.082145,-0.642593,turn_left
43:42.8,32.90804956,-80.10068799,28.243,39.912,1019.131,172.631993,357.153755,0.193577,-25.209373,8.992283,89.506836,0.054065,-0.013509,0.862687,-0.535715,-0.346072,-0.066547,turn_left
43:43.0,32.90804956,-80.10068799,28.349,39.865,1019.138,173.900305,356.130025,359.195033,-24.67396,6.205416,90.544914,0.189593,0.125038,0.811267,-0.000037,0.211782,0.059006,turn_left
43:43.2,32.90804956,-80.10068799,28.296,39.888,1019.143,175.018024,356.452595,2.727536,-24.141693,5.486295,90.571609,0.162681,0.084492,1.094199,-0.101441,0.037075,0.599316,turn_left
43:43.3,32.90806112,-80.10067562,28.207,39.696,1019.146,174.671788,356.123961,5.742329,-24.022659,6.38651,90.364677,0.030548,0.204189,0.747662,-0.02661,0.136951,0.337255,turn_left
43:43.5,32.90806112,-80.10067562,28.314,39.593,1019.132,174.532671,356.717147,6.476357,-23.413826,6.967921,90.729301,0.121223,0.067739,0.747418,-0.377247,0.112517,0.187898,turn_left
43:43.7,32.90806112,-80.10067562,28.278,39.716,1019.127,174.927715,357.275022,3.963231,-22.668602,6.587065,91.070251,0.065218,0.186465,1.057157,-0.237358,-0.106173,-0.379901,turn_left
43:43.8,32.90806112,-80.10067562,28.314,39.417,1019.129,175.31608,1.116255,1.92631,-23.008059,5.778255,91.247711,0.333363,-0.20263,1.20435,0.636484,-0.050585,-0.868593,turn_left
43:44.0,32.90806112,-80.10067562,28.385,40.214,1019.117,174.100088,0.361123,1.616993,-24.236584,5.686987,91.712097,0.136739,0.042974,0.793233,-0.002175,-0.11106,-0.327672,turn_left
43:44.2,32.90806112,-80.10067562,28.385,39.952,1019.118,172.717753,356.39027,359.995317,-24.458237,4.960984,91.143532,0.177228,0.138635,0.796158,-0.104801,-0.367013,-0.103485,turn_left
43:44.4,32.90805272,-80.10066509,28.296,39.888,1019.116,172.293093,356.64868,3.930644,-23.735115,4.77937,91.549477,0.014547,0.074537,1.124174,0.863115,0.208117,-0.061946,turn_left
43:44.5,32.90805272,-80.10066509,28.349,39.795,1019.119,171.764395,358.746403,7.902145,-22.786415,5.831638,91.752937,0.074916,0.199818,0.742788,0.442229,0.60579,-0.244289,turn_left
43:44.7,32.90805272,-80.10066509,28.314,40.134,1019.123,170.837566,359.061269,9.799479,-23.486017,6.810599,91.193192,0.125345,0.168498,0.637998,-0.069676,0.041351,0.282888,turn_left
43:44.9,32.90805272,-80.10066509,28.332,39.998,1019.125,168.656195,0.435503,8.776209,-23.900068,6.604796,90.589195,0.046065,0.190107,0.956998,-0.191544,0.291805,-0.469393,turn_left
43:45.0,32.90805272,-80.10066509,28.332,40.47,1019.119,160.896157,0.122395,9.365948,-24.533783,6.790697,91.083488,0.158075,0.211472,1.367383,-0.635337,0.344951,0.422776,turn_left
43:45.2,32.90805272,-80.10066509,28.314,39.815,1019.114,166.840443,359.553294,6.870282,-25.114063,6.747624,91.266655,0.063521,-0.000965,0.779586,-0.121905,0.138784,0.29541,turn_left
43:45.4,32.90805272,-80.10066509,28.314,39.981,1019.113,167.541562,0.171221,7.520644,-24.471775,6.422091,91.208664,0.056247,0.252261,0.680889,-0.030967,0.0854,0.102758,turn_left
43:45.5,32.90805272,-80.10066509,28.367,40.068,1019.118,168.650334,2.205447,9.453503,-24.055439,6.332068,91.255219,0.050914,0.051229,1.24261,0.164815,0.044167,0.062747,turn_left
43:45.7,32.90805272,-80.10066509,28.296,39.616,1019.118,173.120447,3.018781,4.637307,-24.99168,7.646558,90.755867,0.092372,0.024765,0.975031,0.173672,0.212155,0.049308,turn_left
43:45.9,32.90805188,-80.10065455,28.261,39.812,1019.123,174.716116,1.526521,2.132236,-25.792,8.099748,90.531258,0.151286,0.196905,0.677234,-0.173605,-0.127181,0.189196,turn_left
43:46.0,32.90805188,-80.10065455,28.403,39.898,1019.117,173.326828,0.162725,2.139002,-26.231947,7.25061,90.108894,0.053096,0.175296,0.969426,-0.017223,-0.226446,-0.312019,turn_left
43:46.2,32.90805188,-80.10065455,28.314,39.819,1019.112,171.791306,1.368038,1.963538,-25.818916,6.771136,90.100266,0.289723,-0.138464,1.686382,-0.152835,0.494375,0.432626,turn_left
43:46.4,32.90805188,-80.10065455,28.261,40.241,1019.116,172.408673,2.578525,359.457459,-25.803152,6.85943,90.441345,0.099403,0.102216,0.56952,-0.264623,0.109224,-0.473898,turn_left
43:46.5,32.9080586,-80.10064401,28.261,39.955,1019.096,168.57523,1.436528,358.677459,-26.381071,5.651221,90.704765,0.104009,0.187679,0.880233,-0.081408,0.01934,0.021132,turn_left
43:46.7,32.9080586,-80.10064401,28.261,40.184,1019.08,169.43306,2.409934,2.740043,-26.537519,4.83354,90.640083,0.042186,0.0522,1.156098,0.515713,0.121965,0.220274,turn_left
43:46.9,32.9080586,-80.10064401,28.207,39.447,1019.073,165.53656,2.200621,8.024172,-26.326748,5.158557,90.692345,-0.064424,0.247406,0.635318,0.360859,0.087756,-0.229323,turn_left
43:47.0,32.9080586,-80.10064401,28.172,40.214,1019.058,164.057688,0.17579,9.83074,-26.571022,6.147887,90.47068,0.075643,0.14519,0.635561,0.015109,-0.23081,0.313736,turn_left
43:47.2,32.9080586,-80.10064401,28.207,39.742,1019.051,165.555658,358.166904,9.107841,-25.538877,6.329615,90.505852,0.103282,0.208559,0.927267,-0.279633,-0.078399,-0.112037,turn_left
43:47.4,32.90805693,-80.10062293,28.136,40.493,1019.046,163.553265,0.774706,9.385831,-24.695789,6.56005,91.089844,0.178198,-0.006754,1.378837,0.192565,0.44328,0.223328,turn_left
43:47.5,32.90805693,-80.10062293,28.19,40.556,1019.033,164.208594,359.249486,9.589761,-24.314037,6.78242,91.711334,0.208746,0.115569,0.535402,0.1889,0.125019,-0.32645,turn_left
43:47.7,32.90805693,-80.10062293,28.19,40.131,1019.017,161.887955,357.82367,9.481741,-23.821564,6.070448,92.171043,0.10013,0.284796,0.849527,-0.19055,-0.041946,0.027383,turn_left
43:47.9,32.90805693,-80.10062293,28.154,40.018,1019.01,162.770812,359.216198,11.515222,-23.459154,5.521217,92.318756,0.139891,0.137663,1.072997,-0.135877,0.016697,0.313574,turn_left
43:48.0,32.90805693,-80.10062293,28.154,39.513,1018.991,160.98077,357.818052,13.192698,-23.720999,5.731596,91.539215,-0.028386,0.085949,0.731334,0.023864,0.114435,0.069533,turn_left
43:48.2,32.90805693,-80.10062293,28.154,40.177,1018.985,161.255575,357.086067,12.779837,-24.07457,6.021358,91.443977,-0.006171,0.188164,0.650671,0.060102,-0.114662,0.151191,turn_left
43:48.4,32.90805693,-80.10062293,28.154,40.646,1018.989,162.319651,356.550487,12.386332,-24.069395,6.147814,91.713463,0.138679,0.192049,1.034493,0.32689,-0.053171,-0.210895,turn_left
43:48.6,32.90805693,-80.10062293,28.154,40.46,1018.995,163.788182,359.874645,14.044821,-24.016024,6.584488,92.019981,0.186683,-0.005548,0.966989,0.564822,-0.098375,-0.364528,turn_left
43:48.7,32.90805693,-80.10062293,28.172,40.337,1018.99,164.46392,0.249976,14.060633,-24.231596,7.010184,91.415565,0.176258,0.169712,0.611923,-0.304439,0.175904,0.036505,turn_left
43:48.9,32.90806092,-80.10061057,28.154,40.224,1019.008,164.97811,359.41706,12.685293,-23.60154,6.264535,91.476028,0.201715,0.119697,0.937745,0.078302,0.132428,0.111826,turn_left
43:49.1,32.90806092,-80.10061057,28.048,40.181,1019.009,168.698651,358.574518,12.192009,-23.599516,6.195463,91.777092,0.196866,-0.059342,1.301098,-0.621749,0.310495,0.476818,turn_left
43:49.2,32.90806092,-80.10061057,28.065,40.174,1019.005,172.989676,358.461914,9.073768,-23.881731,6.837104,91.502251,0.038791,0.087891,0.844897,-0.07533,-0.12719,0.182076,turn_left
43:49.4,32.90806092,-80.10061057,28.048,40.48,1019.007,170.974456,357.638887,9.47095,-23.909018,6.585487,91.550919,0.073946,0.163157,0.635561,-0.053645,0.058208,-0.310587,turn_left
43:49.6,32.90806008,-80.10060003,28.048,40.174,1018.999,168.07485,358.38231,7.667108,-23.569553,5.791873,91.297729,0.097221,0.133293,1.130266,0.227964,0.059735,-0.837153,turn_left
43:49.7,32.90806008,-80.10060003,28.101,39.962,1018.996,164.568449,2.786034,7.752961,-23.874062,5.126614,91.348579,0.126314,0.034962,1.115644,0.628081,0.133955,-0.437036,turn_left
43:49.9,32.90806008,-80.10060003,28.154,40.094,1018.996,166.009947,1.124699,6.95482,-24.125893,4.763162,91.074112,0.191047,0.172868,0.60583,-0.236293,0.080504,0.280425,turn_left
43:50.1,32.90806008,-80.10060003,28.101,39.324,1019.002,167.09413,0.123313,6.103145,-24.001276,4.029322,91.218826,0.232263,0.087891,0.914594,0.149808,0.105817,-0.139039,turn_left
43:50.2,32.90806008,-80.10060003,28.101,40.038,1019.005,166.905918,359.486479,8.59478,-24.347982,3.964238,90.635765,0.209231,0.186707,1.245047,-0.472053,0.236237,0.611715,turn_left
43:50.4,32.90805924,-80.10058949,28.136,40.138,1019.015,164.680505,359.217334,8.38368,-25.199516,4.809889,90.642731,0.095039,0.141548,0.742057,-0.249698,0.275332,-0.047104,turn_left
43:50.6,32.90805924,-80.10058949,28.119,40.078,1019.007,161.118056,357.486177,7.231721,-25.45256,4.209289,91.021057,0.127769,0.183794,0.546612,-0.235343,-0.162352,-0.48937,turn_left
43:50.7,32.90805924,-80.10058949,28.03,39.972,1019.009,155.041647,356.748981,5.118202,-24.713322,1.364728,90.824631,0.106676,0.123339,1.205325,0.306189,-0.089049,-1.04037,turn_left
43:50.9,32.90805924,-80.10058949,28.207,39.693,1019.016,152.24463,359.273533,6.245001,-24.449457,-0.617491,91.730637,0.133103,0.000486,1.05935,0.184627,0.289382,-0.600853,turn_left
43:51.1,32.90805924,-80.10058949,28.119,40.37,1019.014,147.599486,358.523413,8.366026,-24.748247,-2.649195,92.318871,0.199291,0.135235,0.544662,0.04871,-0.133642,-0.703478,turn_left
43:51.2,32.90805924,-80.10058949,28.119,40.038,1019.011,141.632387,357.087968,8.967178,-23.627996,-5.139408,93.01046,0.200745,0.145918,0.850989,-0.138215,-0.080191,-0.632312,turn_left
43:51.4,32.90805924,-80.10058949,28.083,40.556,1019.01,137.963251,356.304302,6.480059,-21.834064,-7.84466,93.502945,0.127769,0.058513,1.175594,-0.829104,0.395062,0.081178,turn_left
43:51.6,32.90805924,-80.10058949,27.906,40.191,1019.007,136.682727,357.98066,3.797851,-21.631582,-10.651437,92.783142,-0.000247,-0.041491,0.674797,0.247852,0.191033,-0.605434,turn_left
43:51.8,32.90805924,-80.10058949,28.083,40.307,1019.017,133.999719,358.330824,3.634344,-21.602804,-12.695062,92.422836,0.107161,0.121153,0.824426,-0.210297,-0.193812,-0.200736,turn_left
43:51.9,32.90805841,-80.10057895,28.101,39.639,1019.015,128.246678,357.577642,3.138803,-20.102234,-14.331328,92.929947,0.28148,0.058027,1.047896,0.011752,0.072525,-1.162849,turn_left
43:52.1,32.90805841,-80.10057895,27.977,39.995,1019.018,123.471748,357.858391,1.269422,-19.983587,-15.964585,92.702362,0.30039,-0.140393,0.888519,-0.147989,0.304349,-0.663161,turn_left
43:52.3,32.90805841,-80.10057895,27.959,40.144,1018.996,119.714679,357.557994,1.573554,-20.697643,-18.708363,91.199165,0.243658,-0.029912,0.698191,0.085361,0.022434,-0.875131,turn_left
43:52.4,32.90806997,-80.10056658,27.888,40.327,1018.993,115.65741,354.87234,3.563481,-19.043938,-21.01302,90.921638,0.127527,-0.036425,1.165602,0.350782,0.131168,-0.347955,turn_left
43:52.6,32.90806997,-80.10056658,27.799,41.234,1018.978,116.008687,355.077891,2.789552,-16.705975,-22.426989,90.527977,0.041943,-0.004101,0.584141,-0.020929,-0.112567,-0.653998,turn_left
43:52.8,32.90806997,-80.10056658,27.71,40.164,1018.98,114.387029,351.361384,3.082938,-15.021154,-23.843769,89.352623,0.117829,-0.013026,0.674309,0.020915,-0.145859,-0.187297,turn_left
43:52.9,32.90806997,-80.10056658,27.604,39.879,1018.979,113.032131,350.379117,1.960164,-12.463806,-25.125189,88.37468,0.142316,-0.025811,1.061787,0.173937,-0.095768,-0.678127,turn_left
43:53.1,32.90806997,-80.10056658,27.728,40.443,1018.983,111.824267,356.80902,2.504876,-10.856265,-25.466372,88.135803,0.057945,-0.178748,1.256257,0.089638,0.477529,-0.402627,turn_left
43:53.3,32.90806997,-80.10056658,27.746,40.529,1018.985,107.372233,356.090787,4.157541,-10.458043,-25.708851,88.681915,0.273964,0.09299,0.624351,0.005949,0.035568,-0.573975,turn_left
43:53.5,32.90806913,-80.10055605,27.781,40.058,1018.997,105.310329,351.051817,2.093034,-6.665556,-26.051144,89.61618,0.184744,0.042246,1.055451,-0.246338,-0.163269,-0.05871,turn_left
43:53.6,32.90806913,-80.10055605,27.728,40.403,1018.999,113.129564,350.459196,356.776151,-3.660995,-26.059835,90.207756,0.013335,-0.152696,1.330829,-0.413715,-0.032849,0.637371,turn_left
43:53.8,32.90806913,-80.10055605,27.71,41.347,1018.993,115.955042,351.82054,358.133502,-3.617939,-24.102219,90.507729,-0.056032,-0.106381,0.701847,0.389572,-0.158687,0.265354,turn_left
43:54.0,32.90806913,-80.10055605,27.746,40.363,1018.975,116.955419,351.090795,357.571789,-4.169773,-21.592173,90.2976,0.095524,0.007284,0.807368,-0.323002,-0.249706,0.431204,turn_left
43:54.1,32.90806913,-80.10055605,27.764,40.503,1018.968,120.866727,347.024153,355.957469,-3.609916,-19.689838,89.963715,0.183289,0.081093,0.975762,0.315047,-0.158687,0.119357,turn_left
43:54.3,32.90806913,-80.10055605,27.835,40.603,1018.964,124.251892,350.759353,355.743602,-2.158267,-17.678005,89.613693,0.20123,-0.104692,1.044972,0.339481,0.308319,-0.1537,turn_left
43:54.5,32.90806913,-80.10055605,27.87,41.297,1018.959,129.829506,353.801646,354.698213,-2.520525,-16.356976,89.553368,0.160014,-0.024123,0.753511,-0.038033,0.107955,0.418987,turn_left
43:54.6,32.90806913,-80.10055605,27.835,40.526,1018.957,133.802354,353.492708,354.868218,-3.13511,-16.751888,89.378647,0.063278,0.080122,0.910451,0.250906,0.043204,0.393636,turn_left
43:54.8,32.90806913,-80.10055605,27.764,40.692,1018.958,142.225671,0.034919,351.595386,-4.102664,-16.912882,88.695595,-0.017772,-0.283923,1.559416,-0.1205,0.27686,0.709453,turn_left
43:55.0,32.90807312,-80.10054368,27.888,40.553,1018.97,148.137022,4.143609,350.177078,-5.835135,-16.826817,88.846741,-0.02493,-0.008443,0.782023,-0.037728,-0.16052,0.593694,turn_left
43:55.1,32.90807312,-80.10054368,27.959,40.503,1018.979,150.956907,2.684401,350.492535,-6.035202,-17.169497,89.280273,0.147892,0.02525,0.628007,0.060316,-0.148303,0.298341,turn_left
43:55.3,32.90807312,-80.10054368,28.101,40.775,1018.98,150.715651,0.795299,351.22594,-4.628495,-17.532148,88.893364,0.25772,0.094204,1.275997,-0.211824,0.564883,0.028949,turn_left
43:55.5,32.90807312,-80.10054368,28.048,41.117,1018.982,148.955375,4.973479,352.657078,-4.747128,-17.318245,88.842918,0.080734,-0.026294,0.935065,0.138507,0.521511,0.250999,turn_left
43:55.7,32.90807312,-80.10054368,27.941,40.785,1018.976,147.970229,4.156703,354.745763,-6.403849,-15.974309,89.035957,0.140861,0.045159,0.694049,0.202342,-0.158076,0.088814,turn_left
43:55.8,32.90807312,-80.10054368,27.746,40.689,1018.981,149.249059,2.956561,358.034245,-6.966057,-14.937309,89.042679,0.047519,-0.034495,1.082258,0.418894,0.166598,0.403104,turn_left
43:56.0,32.90807312,-80.10054368,27.87,40.769,1018.972,153.330643,5.412161,0.566468,-8.489178,-14.317761,89.447426,-0.012342,-0.069956,0.971376,0.1269,0.0936,0.289483,turn_left
43:56.2,32.90807312,-80.10054368,27.799,40.134,1018.975,154.711216,6.363844,2.096994,-12.522728,-14.143719,89.176064,0.034912,0.124067,0.511276,0.060011,-0.006276,0.535662,turn_left
43:56.3,32.90807312,-80.10054368,27.852,41.048,1018.975,156.805448,5.073333,1.15329,-17.045233,-13.62445,88.748215,0.159287,-0.037872,1.124174,0.099843,0.028063,-0.067333,turn_left
43:56.5,32.90807228,-80.10053314,27.852,40.759,1018.974,158.705674,10.033036,357.97623,-20.571815,-12.52475,88.178963,0.002909,-0.280063,1.47266,0.614191,0.013402,-0.288161,turn_left
43:56.7,32.90807228,-80.10053314,27.852,40.596,1018.978,159.970489,9.343322,358.347594,-23.158848,-11.109806,88.443764,0.122435,0.028164,0.601688,0.206439,-0.207731,-0.195309,turn_left
43:56.8,32.90807228,-80.10053314,27.852,40.5,1018.984,159.889087,5.564354,359.058983,-23.547989,-9.944644,89.561813,0.141104,0.079636,0.86951,-0.023247,-0.174133,0.298881,turn_left
43:57.0,32.90807228,-80.10053314,27.87,40.935,1018.979,163.357197,4.331576,0.661877,-22.682096,-8.607858,90.517746,0.141831,0.088619,1.286719,-0.349449,0.215904,0.686169,turn_left
43:57.1,32.90807228,-80.10053314,27.87,40.247,1018.977,165.826516,5.730664,359.147272,-22.542439,-6.963315,90.764236,-0.04838,0.061912,0.767401,-0.270952,0.198495,0.388984,turn_left
43:57.3,32.90807228,-80.10053314,27.959,40.516,1018.972,167.295471,5.504463,359.219675,-22.984575,-6.145195,90.740356,0.143043,0.125767,0.724511,0.027455,-0.069064,0.221912,turn_left
43:57.5,32.90807228,-80.10053314,27.799,40.782,1018.982,164.77233,2.379653,0.331291,-22.869892,-5.788798,90.461365,0.187411,0.005827,1.164871,0.50729,-0.284394,-0.881616,turn_left
43:57.6,32.90807228,-80.10053314,27.817,39.812,1018.992,159.84424,1.65552,4.725687,-22.300625,-5.619238,90.545265,0.209231,0.108285,0.918981,0.124888,0.196967,-0.354439,turn_left
43:57.8,32.90808384,-80.10052077,27.799,40.706,1019,154.976009,0.330363,5.627288,-21.353439,-5.530818,91.407639,0.119283,0.145433,0.601931,0.074186,-0.069675,-0.544419,turn_left
43:58.0,32.90808384,-80.10052077,27.87,40.888,1019.008,151.56325,358.978589,6.693715,-19.813551,-5.848772,92.233452,0.103282,0.134021,1.036443,0.054028,0.237285,0.218247,turn_left
43:58.2,32.90808384,-80.10052077,27.906,40.679,1019.018,155.887497,0.974651,3.614002,-17.99682,-6.123419,92.906349,0.056247,-0.057412,1.209955,-0.074865,0.164286,0.03682,turn_left
43:58.3,32.90808384,-80.10052077,27.87,40.619,1019.011,159.086075,1.916106,1.860955,-18.289433,-6.29318,92.635422,0.028366,0.070895,0.669923,0.078768,-0.057458,0.155022,turn_left
43:58.5,32.90808868,-80.10051895,27.906,40.32,1019.006,159.812329,3.234893,1.27763,-18.495953,-7.198143,91.663986,0.071037,0.142276,0.952367,-0.075983,-0.065248,0.118377,turn_left
43:58.7,32.90808868,-80.10051895,27.87,40.945,1019.012,156.12206,1.849398,4.316854,-18.558605,-7.865051,91.926575,0.305482,0.173839,1.022065,-0.187466,0.182458,-0.198968,turn_left
43:58.8,32.90808868,-80.10051895,27.906,40.593,1019.012,153.936577,3.392564,1.771112,-19.034204,-8.534666,91.781738,0.09116,0.028407,0.950661,-0.471213,0.256372,-0.070075,turn_left
43:59.0,32.90808868,-80.10051895,27.781,40.576,1018.995,151.93902,3.918471,0.811253,-19.870722,-10.48947,91.337234,0.12195,0.142762,0.643603,0.077039,0.07128,-0.229817,turn_left
43:59.2,32.90808868,-80.10051895,27.835,40.636,1018.978,150.663045,3.802387,2.801596,-19.983547,-11.941926,91.787331,0.149347,0.010926,1.226039,-0.005734,0.101518,0.16633,turn_left
43:59.3,32.90808868,-80.10051895,27.852,40.739,1018.986,150.61899,5.108107,6.314429,-20.417242,-11.213448,91.604103,0.038306,0.055842,0.903872,0.427675,0.351056,-0.068243,turn_left
43:59.5,32.9080954,-80.10050841,27.941,40.324,1018.975,146.349207,4.983076,6.86068,-21.018545,-10.989736,91.338058,0.077825,0.137663,0.579998,-0.042996,-0.09793,-0.507455,turn_left
43:59.7,32.9080954,-80.10050841,27.888,40.599,1018.985,140.731198,2.577952,6.030486,-20.610085,-12.055999,90.783966,0.19129,0.103187,0.993065,-0.096142,0.024243,-0.525475,turn_left
43:59.8,32.9080954,-80.10050841,27.781,40.662,1018.999,141.278693,5.482052,0.282366,-19.844009,-13.444972,90.780106,0.193957,-0.370764,1.362996,0.509531,-0.46506,-1.446966,turn_left
44:00.0,32.9080954,-80.10050841,27.835,40.46,1019.003,136.596694,5.22329,359.643797,-18.410774,-14.375412,91.720078,0.134315,0.079393,0.628007,0.040998,0.044402,-0.679108,turn_left
44:00.2,32.9080954,-80.10050841,27.835,40.709,1019.009,132.059918,3.095275,359.811218,-15.813403,-16.243696,92.55661,0.220383,0.148589,0.782511,-0.138902,-0.269277,-0.444536,turn_left
44:00.3,32.9080954,-80.10050841,27.923,40.586,1019.011,130.590731,2.397217,359.874873,-13.543797,-18.294058,92.949791,0.19129,0.054386,1.099804,-0.758014,0.173905,-0.02762,turn_left
44:00.5,32.9080954,-80.10050841,27.817,41.17,1019.01,128.621341,2.802148,357.324792,-12.63639,-19.299362,92.598663,0.056975,-0.024605,0.904603,-0.057657,0.387708,-0.249059,turn_left
44:00.7,32.9080954,-80.10050841,27.852,40.403,1019.012,125.130828,0.851488,358.223599,-12.526271,-20.223591,91.847374,0.127284,0.11387,0.58536,0.028475,-0.025237,-0.478133,turn_left
44:00.8,32.90810696,-80.10049604,27.781,40.828,1019.023,118.35457,359.974989,356.65211,-11.104629,-21.675064,91.143639,0.200018,0.018938,1.074947,-0.193269,0.178792,-1.321738,turn_left
44:01.0,32.90810696,-80.10049604,27.906,40.456,1019.022,107.429628,1.044655,355.438794,-8.481558,-23.414455,90.837944,0.157347,-0.155108,1.145619,0.633842,-0.099762,-1.819899,turn_left
44:01.2,32.90810696,-80.10049604,27.764,40.745,1019.019,96.876323,359.236184,356.451005,-3.71272,-23.99645,92.130936,0.256265,0.03739,0.824183,0.031835,-0.491632,-1.53157,turn_left
44:01.3,32.90811936,-80.10049421,27.852,40.994,1019.004,84.78169,351.758141,359.029337,4.23125,-23.328663,92.999413,0.153953,0.094204,0.92946,-0.037804,-0.645876,-1.362972,turn_left
44:01.5,32.90811936,-80.10049421,27.746,40.825,1019.019,79.103836,349.717328,358.682936,14.303294,-20.407484,92.100975,0.28245,-0.114582,1.154148,-0.457774,0.09205,-0.786926,turn_left
44:01.7,32.90811936,-80.10049421,27.764,41.081,1019.02,69.291142,349.547522,1.09915,20.64937,-15.433558,90.943085,0.062551,0.166313,0.693805,-0.248247,-0.146799,-1.045933,turn_left
44:01.9,32.90811936,-80.10049421,27.781,40.337,1019.021,54.495614,348.744579,2.233743,23.8283,-10.057645,89.535187,0.099645,0.079879,0.856351,-0.371336,-0.26042,-1.715746,turn_left
44:02.0,32.90811936,-80.10049421,27.923,40.911,1019.017,37.85144,346.601966,3.588914,25.03898,-4.281015,87.071312,0.155408,0.068468,1.0323,-0.161504,-0.388701,-1.802795,turn_left
44:02.2,32.90811936,-80.10049421,27.852,41.097,1019.01,19.638493,347.180312,4.126276,25.130156,1.938951,84.92627,0.204382,0.089105,0.881939,-0.178914,0.110986,-1.921608,turn_left
44:02.4,32.90811936,-80.10049421,27.817,40.642,1019.002,11.145011,348.036733,3.85773,23.196993,7.774934,84.289734,0.249477,0.110471,0.908989,-0.276347,-0.075328,-0.805862,turn_left
44:02.5,32.90811936,-80.10049421,27.817,40.785,1019,11.395951,349.248295,5.878799,20.430969,12.275903,83.813721,0.147407,0.194962,0.798351,-0.092171,0.090217,-0.568236,turn_left
44:02.7,32.90811936,-80.10049421,27.835,41.825,1018.995,2.703586,354.714322,6.446888,17.440758,15.789129,84.681053,-0.097006,0.19909,1.037905,-0.040248,0.362663,-0.796394,turn_left
44:02.8,32.90811936,-80.10049421,27.799,41.127,1018.985,358.723664,355.243023,7.945856,15.094544,17.121117,85.055046,0.008728,0.020152,0.892174,-0.011537,-0.021266,-0.41949,turn_left
