DateTime, Temp, Humidity, Pressure, Yaw, Pitch, Roll, MagX, MagY, MagZ, AccX, AccY, AccZ, GyroX, GyroY, GyroZ, State
11/12/2017 10:52:35.251176,29.361,40.702,1031.956,215.801975,356.730118,2.171165,-5.351357,5.945352,26.308798,0.056247,0.034719,0.960166,-0.060679,0.072064,0.049957,standing
11/12/2017 10:52:35.523388,29.308,39.749,1031.952,216.099403,356.626506,2.103062,-10.720130,12.090914,53.852757,0.055035,0.016267,0.974544,0.011399,0.019521,-0.016927,standing
11/12/2017 10:52:35.688238,29.468,40.231,1031.941,216.340904,356.301112,2.310486,-13.004756,14.781075,65.216164,0.046307,0.014810,0.939451,0.040319,0.005237,-0.007642,standing
11/12/2017 10:52:35.849093,29.397,40.121,1031.950,216.613607,356.519507,2.298305,-13.880388,16.216396,69.694740,0.060854,0.016267,0.945544,-0.005668,0.020673,0.007911,standing
11/12/2017 10:52:36.010403,29.343,40.088,1031.943,216.940253,356.745464,2.196436,-13.895806,16.390114,71.753525,0.055763,0.023308,0.937014,-0.008612,0.015847,0.017006,standing
11/12/2017 10:52:36.175225,29.308,40.224,1031.937,217.164516,356.379332,1.840557,-14.020544,16.183704,72.564941,0.067885,0.002914,0.961140,0.022489,0.000194,0.012791,standing
11/12/2017 10:52:36.336366,29.308,40.011,1031.944,217.206713,356.615157,1.925716,-14.178524,15.746212,73.375908,0.057702,0.010197,0.925561,0.002293,0.021930,-0.005552,standing
11/12/2017 10:52:36.497449,29.343,40.154,1031.955,217.219458,356.850376,1.917119,-14.236344,15.607034,73.796616,0.061096,0.013596,0.954561,-0.000671,0.011006,-0.008598,standing
11/12/2017 10:52:36.662263,29.379,39.975,1031.958,217.204650,357.119853,2.216656,-14.291368,15.489840,73.464424,0.056490,0.012382,0.941401,0.037855,0.004997,-0.002260,standing
11/12/2017 10:52:36.823478,29.397,40.204,1031.969,217.304876,356.987696,2.432300,-14.286838,15.459879,73.560707,0.061581,0.011897,0.997939,0.003272,-0.018102,-0.001161,standing
11/12/2017 10:52:36.984668,29.397,40.134,1031.974,217.387276,357.048391,2.258510,-14.311211,16.060633,73.556519,0.056732,0.014325,0.949930,-0.000902,0.001060,0.002870,standing
11/12/2017 10:52:37.149449,29.326,40.081,1031.967,217.478295,357.014498,2.310934,-14.063699,16.037762,73.242119,0.060854,0.006313,0.944082,0.017257,0.002811,-0.002997,standing
11/12/2017 10:52:37.317598,29.308,40.805,1031.975,217.518634,357.246427,2.266174,-13.682872,15.841974,73.545807,0.062309,0.006313,0.948712,0.005906,0.018610,-0.009703,standing
11/12/2017 10:52:37.478927,29.397,40.138,1031.983,217.492119,357.339693,2.133825,-14.501453,15.838367,73.181602,0.062551,0.008983,0.952367,0.017350,0.021864,-0.004395,standing
11/12/2017 10:52:37.640324,29.379,39.995,1031.973,217.503935,357.539479,2.195811,-14.397323,15.829420,72.976425,0.065703,0.006313,0.939451,0.016156,0.030871,-0.014067,standing
11/12/2017 10:52:37.805134,29.361,39.965,1031.963,217.463391,357.650011,1.956155,-14.244225,15.758842,73.421211,0.068370,0.010440,0.954804,-0.000221,0.015367,-0.015151,standing
11/12/2017 10:52:37.966546,29.414,40.905,1031.958,217.490330,357.906329,1.740096,-14.212523,15.731770,73.549606,0.058914,-0.001689,0.949687,0.042928,0.054830,-0.003330,standing
11/12/2017 10:52:38.134675,29.308,40.051,1031.954,217.602399,358.118585,1.556997,-14.261977,15.220936,73.239677,0.057460,0.001457,0.947981,-0.018593,0.019909,-0.028305,standing
11/12/2017 10:52:38.302732,29.308,39.902,1031.955,217.521571,358.023317,1.427788,-14.549580,15.369807,73.805710,0.056247,0.000243,0.945300,0.020703,0.012461,-0.016204,standing
11/12/2017 10:52:38.467299,29.290,40.101,1031.964,217.430347,358.165246,1.448459,-14.656960,15.354149,74.146049,0.052368,0.000971,0.942619,0.001890,0.045452,-0.016353,standing
11/12/2017 10:52:38.635326,29.308,40.513,1031.968,217.583111,358.334055,1.368478,-14.722598,15.551018,73.851204,0.052611,0.000971,0.939208,-0.011938,0.018048,0.017951,standing
11/12/2017 10:52:38.803404,29.343,39.991,1031.974,217.803630,358.357125,1.187935,-14.920245,15.505253,73.683479,0.048974,-0.004101,0.940426,-0.027934,0.022073,0.007160,standing
11/12/2017 10:52:38.971465,29.485,39.995,1031.981,218.119417,358.197833,1.009684,-14.913073,15.621795,73.684479,0.050429,-0.002895,0.942132,-0.012697,0.002186,0.012481,standing
11/12/2017 10:52:39.139637,29.414,40.546,1031.985,218.315594,357.975560,0.923166,-14.865150,15.408269,74.169121,0.056490,-0.013509,0.963334,0.031623,0.002763,0.001047,standing
11/12/2017 10:52:39.307765,29.379,40.061,1031.989,218.563448,357.863945,0.872942,-14.668108,15.160308,74.207024,0.046065,0.000971,0.950418,-0.022826,0.000243,0.000728,standing
11/12/2017 10:52:39.475828,29.361,39.948,1031.988,218.660683,357.930425,1.050113,-14.960346,15.360651,73.869690,0.043640,-0.020022,0.993796,0.028699,0.059729,0.002475,standing
11/12/2017 10:52:39.643915,29.397,40.320,1031.983,218.904602,358.318446,1.120669,-15.103862,15.088348,74.017128,0.047277,0.001457,0.957729,-0.005434,0.041921,-0.010217,standing
11/12/2017 10:52:39.811914,29.432,40.064,1031.970,219.004610,358.193875,1.157543,-15.062004,15.115811,74.793045,0.051641,0.000243,0.995989,-0.004184,-0.004176,0.019297,standing
11/12/2017 10:52:39.980063,29.361,40.446,1031.974,219.012615,358.089452,1.206738,-15.056520,15.288764,74.576271,0.042913,-0.005789,0.945300,0.004188,-0.003087,0.005118,standing
11/12/2017 10:52:40.148252,29.343,40.543,1031.969,219.037436,358.195689,1.025305,-15.170945,15.386490,74.259834,0.044368,-0.006513,0.938720,-0.002840,0.009852,-0.007577,standing
11/12/2017 10:52:40.316405,29.414,40.207,1031.972,219.223545,358.316500,0.773417,-15.122204,15.188156,73.902977,0.039034,-0.006754,0.953586,0.011302,-0.008454,0.009903,standing
11/12/2017 10:52:40.484388,29.237,40.729,1031.971,219.461987,358.221291,0.986917,-15.037007,15.334849,74.107796,0.048732,-0.007719,0.931653,0.024805,0.014498,0.012847,standing
11/12/2017 10:52:40.652644,29.432,40.297,1031.978,219.612551,358.278748,0.816553,-15.002459,15.371934,74.282593,0.034912,-0.002895,0.939939,-0.021283,-0.009266,-0.006441,standing
11/12/2017 10:52:40.820757,29.379,40.244,1031.989,219.612060,358.380031,0.687096,-14.881102,14.974130,74.311096,0.040246,-0.010614,0.949687,-0.003762,0.009810,-0.005134,standing
11/12/2017 10:52:40.988922,29.485,40.300,1031.986,219.659639,358.432294,0.580473,-14.908213,14.711489,74.325653,0.034185,-0.015197,0.946762,0.028905,-0.008554,-0.012071,standing
11/12/2017 10:52:41.157098,29.485,41.549,1031.987,219.681700,358.503696,0.690030,-15.031690,14.803699,73.865685,0.031518,-0.008202,0.937989,0.017179,0.017393,0.001865,standing
11/12/2017 10:52:41.318168,29.485,40.473,1031.981,219.782159,358.556264,0.639231,-15.056428,14.873530,73.944435,0.043155,-0.009649,0.948712,-0.014804,0.001054,-0.002565,standing
11/12/2017 10:52:41.479165,29.450,41.227,1031.974,220.107713,357.969835,359.911035,-15.083984,15.217785,74.239105,0.047277,-0.002653,0.939451,-0.058166,-0.000072,0.015768,standing
11/12/2017 10:52:41.643635,29.414,40.702,1031.971,220.050776,358.132048,359.786188,-14.765678,14.614325,74.385460,0.036367,-0.021952,0.964308,0.032248,-0.019560,0.013355,standing
11/12/2017 10:52:41.811695,29.432,40.566,1031.969,220.134064,358.231100,359.848560,-14.754329,14.626338,74.593864,0.052126,-0.014715,0.954804,0.012687,0.022349,-0.014208,standing
11/12/2017 10:52:41.979786,29.468,40.417,1031.968,220.180277,358.024867,359.862625,-14.945103,14.879459,74.688347,0.032488,-0.014474,0.943107,0.019635,-0.006448,0.000950,standing
11/12/2017 10:52:42.148059,29.503,39.676,1031.960,220.245327,358.202074,359.732360,-15.338841,14.894820,74.563042,0.036124,-0.012785,0.953586,0.020128,-0.009760,-0.015918,standing
11/12/2017 10:52:42.315890,29.432,40.400,1031.972,220.329147,357.897826,359.839370,-15.437989,15.250510,74.063744,0.038791,-0.005789,0.939451,0.006111,0.021591,0.004280,standing
11/12/2017 10:52:42.483954,29.414,40.629,1031.978,220.429292,357.852017,359.854559,-15.271005,15.341683,74.153809,0.041943,-0.010855,0.945787,0.018927,-0.019465,0.000476,standing
11/12/2017 10:52:42.651906,29.521,40.576,1031.979,220.419292,357.844084,359.960328,-15.110529,15.117468,73.959145,0.043398,-0.012785,0.934577,0.008170,0.024475,-0.015610,standing
11/12/2017 10:52:42.820204,29.539,40.520,1031.982,220.449837,357.821889,359.931497,-14.919258,15.059901,73.812477,0.044125,-0.003136,0.944082,0.002131,-0.006871,-0.001676,standing
11/12/2017 10:52:42.988385,29.521,41.948,1031.984,220.404402,357.925513,359.915215,-14.884292,15.350431,74.023087,0.038549,-0.012544,0.942619,0.005478,0.019590,-0.008198,standing
11/12/2017 10:52:43.156541,29.379,40.832,1031.995,220.572248,357.956933,359.877603,-14.781361,15.211869,74.375870,0.034185,-0.010373,0.944813,-0.010684,0.015227,0.007230,standing
11/12/2017 10:52:43.324424,29.432,40.397,1032.005,220.795294,358.167798,359.972241,-15.050405,15.225557,73.808907,0.038306,-0.005789,0.945787,0.026330,0.028953,0.012445,standing
11/12/2017 10:52:43.492590,29.485,40.709,1032.006,220.819569,358.221282,0.144784,-15.343769,15.295610,74.133659,0.039761,-0.012303,0.927754,-0.007325,0.002140,-0.010008,standing
11/12/2017 10:52:43.653586,29.414,41.383,1032.000,220.759490,358.161463,359.901307,-15.342737,15.463734,74.530945,0.036124,-0.004583,0.953829,-0.005218,0.011025,-0.009069,standing
11/12/2017 10:52:43.815573,29.521,40.742,1032.009,220.704234,358.088609,359.786743,-15.239038,15.167061,74.644997,0.036124,-0.012544,0.940426,-0.023325,-0.002102,-0.012329,standing
11/12/2017 10:52:43.980341,29.485,40.752,1032.001,220.707827,357.973604,359.688562,-14.968611,14.931278,74.707481,0.034427,-0.009167,0.941645,-0.007437,0.016098,0.001448,standing
11/12/2017 10:52:44.141544,29.414,40.822,1032.006,220.869812,358.043430,359.659274,-15.247617,14.989533,74.490799,0.034912,-0.016403,0.950661,0.017543,-0.017574,-0.002803,standing
11/12/2017 10:52:44.302559,29.397,40.383,1032.004,220.907678,357.874087,359.677636,-15.469569,14.920329,74.908051,0.040246,-0.018816,0.943594,-0.017378,-0.004307,-0.005924,standing
11/12/2017 10:52:44.467265,29.574,40.649,1031.995,220.918429,357.970920,359.631600,-15.385917,14.843739,75.351471,0.031518,-0.014474,0.952367,0.008724,-0.016166,0.004956,standing
11/12/2017 10:52:44.628416,29.503,40.632,1031.988,220.967333,357.938125,359.731704,-15.281407,15.078911,75.102112,0.034912,-0.016645,0.947006,-0.001729,0.000255,0.005778,standing
11/12/2017 10:52:44.793584,29.485,40.699,1031.986,221.118553,358.013489,359.759046,-15.408562,15.205672,75.096237,0.041701,-0.014474,0.949930,0.030848,-0.003640,0.005960,standing
11/12/2017 10:52:44.961939,29.468,41.579,1031.982,221.220460,358.135028,0.132201,-15.476839,15.164924,75.017761,0.040488,-0.011579,0.941157,0.025889,-0.015142,-0.011989,standing
11/12/2017 10:52:48.889411,29.397,40.642,1031.966,231.541108,1.597764,340.588570,-25.260481,15.522527,75.051926,0.052611,0.010197,0.981611,-0.081083,-0.009855,0.020692,standing
11/12/2017 10:52:49.054745,29.450,41.569,1031.966,229.747309,0.359920,341.367623,-35.138260,15.748831,75.419449,0.059399,-0.017609,0.938720,0.042581,-0.079413,0.011408,standing
11/12/2017 10:52:49.215879,29.503,40.805,1031.962,227.596687,359.834736,342.267024,-39.064163,15.458200,75.856415,0.043155,-0.023640,0.963821,-0.001625,0.011167,-0.013316,standing
11/12/2017 10:52:49.377017,29.397,40.613,1031.966,225.477307,359.820379,343.481999,-40.809734,15.238635,76.092827,0.033942,-0.007960,0.939208,0.023782,0.011560,0.028616,standing
11/12/2017 10:52:49.541791,29.503,40.925,1031.963,223.668850,359.770180,344.863073,-41.595749,15.435751,76.216965,0.037579,0.000971,0.938964,0.023006,0.024096,0.034530,standing
11/12/2017 10:52:49.702966,29.379,39.563,1031.963,221.905610,359.571569,346.139045,-41.875229,15.816956,76.133316,0.043883,-0.001689,0.937014,0.001941,-0.085187,0.014645,standing
11/12/2017 10:52:49.863980,29.521,40.712,1031.962,220.230397,359.122999,346.942300,-42.058487,15.686945,76.189690,0.047035,-0.001206,0.963334,-0.036144,0.029532,0.010176,standing
11/12/2017 10:52:50.028719,29.539,40.965,1031.958,218.701513,358.911798,347.851876,-42.117867,16.246773,76.115921,0.044852,-0.002895,0.959191,0.034753,-0.004601,-0.010071,standing
11/12/2017 10:52:50.196934,29.521,40.506,1031.963,217.164297,358.702829,349.167122,-42.205791,16.664305,76.367142,0.036852,-0.000000,0.930922,0.066685,-0.008768,-0.013937,standing
11/12/2017 10:52:50.365073,29.503,39.540,1031.963,215.796456,358.542238,350.231933,-42.404575,16.235075,76.549812,0.039034,0.001214,0.937745,-0.006838,0.003245,0.006557,standing
11/12/2017 10:52:50.526251,29.521,40.905,1031.961,214.524580,358.331110,350.931243,-42.339214,15.902584,76.190575,0.043640,0.002185,0.942132,-0.017616,-0.009880,0.006854,standing
11/12/2017 10:52:50.687413,29.521,40.759,1031.958,213.336058,357.953248,351.481243,-42.399395,15.831448,75.394440,0.049701,-0.002653,0.953829,0.004934,-0.010217,0.000465,standing
11/12/2017 10:52:50.851992,29.556,41.011,1031.953,212.186032,357.653271,352.018218,-42.142830,15.776352,75.750534,0.046792,0.001457,0.952124,-0.002431,0.007626,-0.009209,standing
11/12/2017 10:52:51.020400,29.521,40.779,1031.941,211.093106,357.968733,352.612463,-42.077538,15.700158,75.799652,0.045580,0.061912,0.952611,0.019064,0.004236,-0.003119,standing
11/12/2017 10:52:51.181583,29.592,40.626,1031.951,210.068209,357.741308,353.207779,-42.219452,15.836423,75.727104,0.048489,-0.003618,0.947981,-0.019159,-0.000030,0.000670,standing
11/12/2017 10:52:51.342740,29.503,40.171,1031.949,209.267683,357.572659,353.584676,-42.251255,16.024267,75.350052,0.046550,-0.003618,0.949687,0.003130,0.005708,0.002624,standing
11/12/2017 10:52:51.507395,29.485,41.144,1031.953,208.535897,357.465181,353.995331,-42.013508,16.218718,75.409218,0.049944,-0.009408,0.947981,0.013049,-0.006091,-0.016862,standing
11/12/2017 10:52:51.675485,29.556,40.828,1031.952,207.803427,357.232362,354.266436,-41.964008,16.386600,75.350563,0.049701,-0.006031,0.954804,-0.004045,-0.003227,0.005320,standing
11/12/2017 10:52:51.843371,29.485,40.888,1031.952,207.286164,357.120964,354.523574,-41.784195,16.086279,75.576263,0.050671,-0.001447,0.969670,-0.024886,0.033908,0.000899,standing
11/12/2017 10:52:52.011667,29.521,41.014,1031.961,206.775880,357.180167,355.174530,-41.940666,15.806981,75.504868,0.051156,-0.012303,0.933359,0.011588,0.009220,0.002277,standing
11/12/2017 10:52:52.179831,29.432,40.622,1031.962,206.171887,357.323771,355.622596,-42.017246,15.823017,75.690346,0.040246,-0.009649,0.955292,0.009621,0.014829,-0.009140,standing
11/12/2017 10:52:52.340912,29.521,40.938,1031.960,205.535504,357.503498,356.003747,-42.292194,15.811978,75.650970,0.045822,-0.008684,0.955292,0.035890,0.016995,-0.027787,standing
11/12/2017 10:52:52.504594,29.397,40.466,1031.968,204.427169,357.511717,356.577200,-42.447548,15.938965,75.689835,0.033942,-0.001447,0.940182,0.045495,0.012756,-0.015811,standing
11/12/2017 10:52:52.669988,29.485,40.696,1031.961,203.867107,357.501103,356.839484,-42.469311,16.114870,75.726608,0.040488,-0.003618,0.958947,0.019374,-0.012990,-0.008280,standing
11/12/2017 10:52:52.834640,29.485,39.872,1031.966,203.462432,357.379301,357.004852,-42.413059,16.171356,75.557892,0.040246,0.000486,0.941888,-0.000373,-0.013650,0.068657,standing
11/12/2017 10:52:53.002871,29.432,40.878,1031.961,203.033920,357.476739,357.240318,-42.524200,16.154127,75.323776,0.039761,0.001214,0.944325,-0.022095,0.005022,-0.017624,standing
11/12/2017 10:52:53.171046,29.521,41.028,1031.957,202.688203,357.495528,357.234391,-42.516319,16.069044,75.567200,0.038791,-0.002895,0.955779,-0.016957,0.004410,-0.016872,standing
11/12/2017 10:52:53.339248,29.574,40.868,1031.960,202.261221,357.648147,357.580150,-42.256237,15.878345,75.481033,0.034912,-0.006513,0.937258,0.023648,0.023353,-0.011910,standing
11/12/2017 10:52:53.500384,29.574,40.845,1031.955,202.004788,357.874991,357.497259,-42.431965,15.752433,74.914108,0.044852,0.001457,0.953829,-0.056594,0.041951,-0.011981,standing
11/12/2017 10:52:53.661412,29.556,40.868,1031.952,201.578461,357.768005,357.876114,-42.511883,15.794433,75.433556,0.040004,-0.004583,0.938964,0.007360,-0.005384,-0.016629,standing
11/12/2017 10:52:53.826107,29.592,40.709,1031.951,201.406969,357.739782,358.159050,-42.188976,15.466518,75.377853,0.033458,-0.003377,0.940426,0.034482,-0.035867,0.017939,standing
11/12/2017 10:52:53.994517,29.503,40.948,1031.939,201.312685,357.942065,358.416843,-42.048000,15.451379,75.468323,0.027154,-0.001689,0.939208,0.004506,0.018021,0.002128,standing
11/12/2017 10:52:54.155630,29.450,42.250,1031.934,201.344514,357.940017,358.674706,-42.117287,15.222148,75.619179,0.038549,-0.003136,0.964552,0.026494,-0.024338,0.035967,standing
11/12/2017 10:52:54.316673,29.574,41.024,1031.939,201.352273,357.664537,359.191191,-42.335960,15.533550,75.717140,0.036852,0.001214,0.910451,0.030686,-0.036104,0.016804,standing
11/12/2017 10:52:54.481715,29.663,40.735,1031.947,201.289230,357.630027,359.115404,-42.137543,15.757066,75.650932,0.039276,0.002185,0.954073,-0.026609,0.014834,0.012578,standing
11/12/2017 10:52:54.649922,29.468,40.656,1031.945,201.231064,357.487475,359.256777,-41.967411,15.590603,75.614578,0.030063,-0.060548,0.930922,-0.024060,-0.027060,0.026534,standing
11/12/2017 10:52:54.810992,29.521,41.011,1031.965,201.311551,357.419040,359.181527,-42.067291,15.517318,75.351273,0.038791,-0.000000,0.955535,0.009261,0.017324,0.007142,standing
11/12/2017 10:52:54.972019,29.521,41.074,1031.968,201.227513,357.335887,359.300586,-41.975906,15.354254,75.148956,0.037579,-0.002171,0.938233,-0.014569,-0.005002,0.007481,standing
11/12/2017 10:52:55.136721,29.450,41.486,1031.977,201.078492,357.319105,359.137604,-41.911045,15.534176,75.222527,0.041701,-0.004101,0.953342,-0.012908,0.001022,-0.008192,standing
11/12/2017 10:52:55.304576,29.485,40.802,1031.979,200.856756,357.625438,359.533039,-41.853222,15.777478,75.208374,0.032730,-0.014956,0.949199,0.057579,0.034338,-0.014060,standing
11/12/2017 10:52:58.814661,29.503,41.048,1031.949,185.397825,12.194124,10.597805,-41.986687,5.325007,75.594017,-0.037272,0.030592,0.854157,-0.069773,-0.229409,0.004316,standing
11/12/2017 10:52:58.979881,29.468,40.689,1031.946,183.703460,11.149002,8.975700,-41.241539,-6.274570,75.685745,0.034912,0.000971,0.938477,-0.100432,0.028200,-0.014976,standing
11/12/2017 10:52:59.144611,29.468,41.014,1031.955,182.575072,9.357413,8.426737,-41.211929,-11.210464,75.604111,0.057217,-0.035701,0.941645,0.087208,-0.068791,0.055277,standing
11/12/2017 10:52:59.313550,29.468,40.845,1031.963,181.390594,8.319710,7.662992,-40.958870,-13.173621,76.090057,0.056490,-0.005066,0.934334,-0.047829,-0.011933,-0.025584,standing
11/12/2017 10:52:59.474752,29.574,41.011,1031.977,180.072982,7.583247,7.011717,-40.739265,-13.938671,76.380043,0.041943,-0.006272,0.924342,0.000570,0.009394,0.007079,standing
11/12/2017 10:52:59.639607,29.592,40.994,1031.988,178.711654,6.693868,6.348171,-40.895054,-14.506877,76.119377,0.050429,-0.011338,0.945544,-0.018404,0.010212,-0.018127,standing
11/12/2017 10:52:59.808139,29.556,41.038,1031.986,177.337829,5.950317,5.764404,-41.060406,-14.784977,76.025635,0.047519,-0.035701,0.956510,0.016601,0.001491,-0.033643,standing
11/12/2017 10:52:59.976552,29.521,40.603,1031.986,176.085678,5.469860,5.190382,-40.607990,-14.741646,75.621338,0.040004,-0.024605,0.962846,0.027292,-0.008881,-0.014704,standing
11/12/2017 10:53:00.137761,29.556,40.802,1031.980,174.973997,4.863760,4.764156,-40.685246,-14.669065,75.880234,0.047035,-0.012544,0.938720,0.014426,-0.021534,-0.000565,standing
11/12/2017 10:53:00.299050,29.592,40.729,1031.983,173.855895,4.314321,3.978212,-40.509991,-14.392115,75.953758,0.033458,-0.011338,0.929460,-0.041076,0.010764,-0.021994,standing
11/12/2017 10:53:00.463839,29.468,40.496,1031.975,173.010795,3.926771,3.256963,-40.435520,-14.426899,75.649849,0.040973,-0.012303,0.978443,0.021224,0.026071,0.021848,standing
11/12/2017 10:53:00.624983,29.610,40.546,1031.961,172.329020,3.479062,3.333104,-40.547615,-14.445632,75.545532,0.046792,-0.025087,0.932140,0.044439,-0.001641,0.007009,standing
11/12/2017 10:53:00.786226,29.468,40.709,1031.956,171.769641,2.947236,3.045180,-40.554192,-14.227285,75.185081,0.048247,-0.000724,0.945544,-0.012861,0.003754,0.006597,standing
11/12/2017 10:53:00.951077,29.503,40.898,1031.944,171.003772,2.575732,2.767215,-40.533970,-14.264482,75.679466,0.050186,-0.003377,0.938964,-0.007711,-0.007764,-0.001539,standing
11/12/2017 10:53:01.127632,29.574,40.506,1031.935,170.291629,2.044857,2.359638,-40.321587,-14.123768,75.580475,0.049459,-0.006031,0.937989,-0.030153,0.002433,-0.008991,standing
11/12/2017 10:53:01.289010,29.503,40.483,1031.933,169.769065,1.923996,2.018387,-40.492062,-14.181425,75.196991,0.045580,-0.007960,0.952611,-0.010595,0.012997,0.010144,standing
11/12/2017 10:53:01.457460,29.503,41.380,1031.936,169.329815,1.806373,1.924163,-40.268158,-14.106727,75.439514,0.055278,-0.020987,0.947981,0.006090,0.021532,-0.001468,standing
11/12/2017 10:53:01.622842,29.592,40.662,1031.941,168.981776,1.503469,1.707170,-40.590618,-14.156577,75.897385,0.053581,-0.009890,0.944325,0.006930,-0.003364,0.004290,standing
11/12/2017 10:53:01.791226,29.610,40.769,1031.942,168.577784,1.153889,1.416915,-40.750118,-13.996839,76.269585,0.049701,-0.010855,0.949443,-0.011445,0.003460,0.000199,standing
11/12/2017 10:53:01.959483,29.521,40.722,1031.948,168.193449,0.859549,1.175486,-40.655598,-14.377314,75.642464,0.051156,-0.010131,0.952367,0.009517,0.016811,0.002249,standing
11/12/2017 10:53:02.120720,29.539,40.715,1031.941,167.850519,0.602647,1.019999,-40.235241,-14.470409,76.227730,0.049701,-0.010373,0.939451,-0.013779,-0.003075,-0.002911,standing
11/12/2017 10:53:02.281953,29.556,40.898,1031.952,167.361819,0.399854,0.863959,-40.388256,-14.575796,75.925697,0.051156,-0.008684,0.948468,0.006249,0.011967,-0.001229,standing
11/12/2017 10:53:02.446913,29.574,40.420,1031.952,166.941230,0.270527,1.049050,-40.524609,-14.443450,76.072670,0.048247,-0.008443,0.938233,0.025079,0.008527,-0.002008,standing
11/12/2017 10:53:02.608073,29.592,40.526,1031.966,166.597972,0.118318,1.031804,-40.384575,-14.236501,76.204918,0.046307,-0.005548,0.943107,0.005264,0.006418,0.001723,standing
11/12/2017 10:53:02.769339,29.521,40.699,1031.961,166.314205,359.956674,0.918650,-40.427673,-14.349072,76.107101,0.049701,-0.008443,0.929216,-0.021019,-0.006123,-0.080975,standing
11/12/2017 10:53:02.934111,29.627,40.500,1031.960,165.971944,359.664676,0.592318,-40.338768,-14.282443,76.140121,0.045580,-0.005789,0.953342,-0.025800,-0.009168,0.000243,standing
11/12/2017 10:53:03.095706,29.503,42.147,1031.963,165.763036,359.493324,0.446675,-40.329571,-14.292893,75.935204,0.048732,-0.010614,0.945787,0.003654,-0.009540,0.004935,standing
11/12/2017 10:53:03.260552,29.503,40.490,1031.961,165.603783,359.249903,0.308195,-40.536072,-14.263492,76.120628,0.055763,-0.009167,0.945544,-0.017851,0.025144,0.003464,standing
11/12/2017 10:53:03.428802,29.574,40.855,1031.968,165.498544,359.150831,0.171820,-40.648693,-14.299802,75.698509,0.053096,-0.009167,0.946519,-0.015138,-0.002061,0.004005,standing
11/12/2017 10:53:03.597407,29.681,40.649,1031.963,165.305167,359.079368,0.089715,-40.376366,-14.187860,75.461632,0.047277,-0.013267,0.947006,-0.009543,0.013773,-0.000740,standing
11/12/2017 10:53:03.765724,29.521,41.131,1031.954,165.158455,358.836830,359.961290,-40.485329,-14.275627,75.463074,0.052126,-0.011338,0.946031,-0.015933,0.004287,0.008328,standing
11/12/2017 10:53:03.927636,29.539,41.503,1031.950,165.037984,358.760213,359.921777,-40.486847,-14.322783,75.213669,0.049944,-0.018092,0.946519,0.022713,0.008299,-0.003128,standing
11/12/2017 10:53:04.092680,29.503,40.539,1031.951,164.991634,358.697693,0.071518,-40.452133,-14.152982,75.108719,0.054065,-0.012544,0.941157,0.011818,0.015643,0.008825,standing
11/12/2017 10:53:04.261139,29.556,40.227,1031.957,164.948754,358.666346,359.825193,-41.031460,-13.983752,75.358940,0.048489,-0.011338,0.948468,0.006365,0.019671,0.005777,standing
11/12/2017 10:53:04.422777,29.539,40.603,1031.958,164.926447,358.608240,359.820637,-40.872425,-13.905288,75.047997,0.048732,-0.010855,0.938477,0.004021,0.000202,0.008434,standing
11/12/2017 10:53:04.588518,29.468,41.267,1031.966,164.836124,358.412944,359.657054,-41.004936,-14.000053,75.087196,0.047519,-0.010614,0.953098,-0.014430,0.013084,-0.005482,standing
11/12/2017 10:53:04.757076,29.539,41.087,1031.960,164.782835,358.348008,359.707835,-40.925617,-14.060074,74.833015,0.043155,-0.009408,0.951636,0.015948,0.018717,0.003527,standing
11/12/2017 10:53:04.918314,29.503,40.719,1031.964,164.751854,358.259146,359.828960,-41.029926,-14.274123,75.069420,0.044852,-0.010855,0.937502,0.006423,-0.001933,0.006587,standing
11/12/2017 10:53:05.079768,29.663,40.739,1031.965,164.739177,358.691261,0.087499,-41.025406,-14.445598,75.173866,0.033215,-0.003136,0.958216,-0.008901,0.070059,0.010206,standing
11/12/2017 10:53:08.172057,29.539,40.260,1031.956,122.592552,14.240095,358.704437,-31.400246,-13.549011,74.608070,-0.011354,0.017238,1.001107,0.007287,0.084720,-0.290340,standing
11/12/2017 10:53:08.337319,29.610,40.872,1031.950,124.376488,12.641024,359.517514,-21.340292,-12.361199,74.323112,-0.013576,0.000728,0.869998,0.078818,-0.142301,0.143900,standing
11/12/2017 10:53:08.499063,29.485,40.360,1031.956,126.402896,11.560047,359.363298,-17.061464,-11.881154,74.001205,0.067158,-0.000965,0.949199,-0.085466,-0.079559,0.132338,standing
11/12/2017 10:53:08.663774,29.556,40.237,1031.964,128.911501,9.386465,0.009444,-14.922495,-11.950462,73.380585,0.094554,-0.007478,0.930191,0.075731,-0.048809,0.005462,standing
11/12/2017 10:53:08.825076,29.681,40.480,1031.963,130.228785,8.361436,0.158667,-13.754419,-11.951133,73.373985,0.070794,-0.024123,0.927754,-0.051671,-0.083470,-0.046274,standing
11/12/2017 10:53:08.986570,29.592,40.383,1031.960,131.644260,7.432694,359.974777,-13.264832,-12.142695,73.593071,0.070067,-0.015438,0.956998,0.007289,0.003174,-0.019678,standing
11/12/2017 10:53:09.151503,29.503,40.121,1031.970,132.751680,6.529204,0.172837,-13.088969,-12.249832,73.754196,0.057217,-0.030153,0.930191,0.002391,0.022869,-0.030591,standing
11/12/2017 10:53:09.312639,29.556,40.463,1031.967,134.015743,5.893229,0.139203,-12.860433,-12.060678,73.698891,0.055278,0.002185,0.934090,-0.003711,0.002620,0.009083,standing
11/12/2017 10:53:09.477743,29.556,40.224,1031.965,134.984906,5.191946,0.176498,-12.945885,-12.058256,74.131096,0.058914,-0.006754,0.933603,-0.040177,0.014259,0.001581,standing
11/12/2017 10:53:09.646073,29.627,40.280,1031.969,135.923770,4.554598,0.123690,-13.190693,-12.352672,74.322487,0.054065,-0.001447,0.945300,0.027978,0.026179,0.011560,standing
11/12/2017 10:53:09.814507,29.574,40.649,1031.973,136.750236,4.078575,0.323522,-13.887789,-12.415832,74.680779,0.050186,-0.001930,0.937989,0.001020,0.021964,0.009319,standing
11/12/2017 10:53:09.982793,29.645,40.387,1031.957,137.525299,3.542134,0.459815,-13.700845,-12.132509,74.576797,0.057460,0.001457,0.944082,0.023647,-0.002685,-0.000460,standing
11/12/2017 10:53:10.144127,29.610,40.144,1031.957,138.029982,3.125945,0.841680,-13.596940,-12.052361,74.599434,0.043398,0.001214,0.994039,0.006891,0.009236,-0.014760,standing
11/12/2017 10:53:10.305523,29.698,40.403,1031.954,138.541235,2.697181,0.965117,-13.796161,-12.163400,75.287476,0.051399,0.003642,0.945056,-0.013130,0.017815,0.006827,standing
11/12/2017 10:53:10.470635,29.468,40.217,1031.956,139.073744,2.172506,0.975330,-13.408951,-12.075448,75.067993,0.046307,0.002428,0.951149,-0.007015,-0.016745,0.003721,standing
11/12/2017 10:53:10.632676,29.645,39.795,1031.952,139.447068,1.898388,0.770407,-13.226932,-11.993958,74.891106,0.050429,0.000971,0.939939,-0.033372,0.006923,-0.017969,standing
11/12/2017 10:53:10.797668,29.485,39.955,1031.956,139.660730,1.690796,0.622543,-13.207935,-11.654685,75.091942,0.044610,0.003885,0.952367,-0.009135,-0.006271,-0.036648,standing
11/12/2017 10:53:10.966267,29.627,40.277,1031.955,139.682628,1.306084,0.382713,-13.491508,-11.408141,75.602844,0.047762,0.002914,0.934821,-0.020079,0.017746,-0.046156,standing
11/12/2017 10:53:11.127672,29.574,40.393,1031.963,139.820994,0.855494,0.093868,-13.110732,-11.286509,75.435310,0.052853,-0.000241,0.951880,-0.036596,0.012036,-0.046721,standing
11/12/2017 10:53:11.292640,29.681,40.154,1031.969,139.972241,0.782321,0.087862,-13.060664,-11.491115,74.984261,0.045337,-0.000000,0.953586,0.034039,0.021232,-0.042666,standing
11/12/2017 10:53:11.461192,29.627,40.267,1031.962,140.147094,0.622832,0.155262,-13.130287,-11.317039,74.409279,0.037579,0.000971,0.937502,-0.021098,0.002852,-0.005008,standing
11/12/2017 10:53:11.631833,29.698,40.015,1031.959,140.490147,0.431932,0.076647,-13.703790,-11.236682,74.255875,0.040973,0.000971,0.947737,-0.006129,-0.009669,0.000794,standing
11/12/2017 10:53:11.796836,29.556,40.453,1031.952,140.994926,0.292796,0.127944,-12.809790,-11.158485,74.090775,0.040246,-0.001930,0.940913,-0.007963,-0.003258,0.005984,standing
11/12/2017 10:53:11.965160,29.716,40.453,1031.948,141.172415,0.112623,0.189272,-13.059811,-11.270953,74.306221,0.037822,-0.000724,0.952367,-0.016206,0.035833,0.009343,standing
11/12/2017 10:53:12.133821,29.574,40.353,1031.932,141.677303,359.987633,0.008681,-13.299765,-11.383725,74.494041,0.035155,-0.001447,0.947006,-0.024751,-0.010897,0.026743,standing
11/12/2017 10:53:12.295079,29.645,39.756,1031.940,142.172723,359.780541,359.860940,-13.334209,-11.507410,74.618538,0.037822,-0.007478,0.961140,-0.005200,-0.006620,0.014519,standing
11/12/2017 10:53:12.456534,29.592,39.918,1031.941,142.528057,359.635020,359.958830,-13.249783,-11.393496,73.987755,0.035640,-0.006272,0.944569,0.000294,-0.005703,0.017875,standing
11/12/2017 10:53:12.621327,29.681,40.157,1031.938,142.897611,359.370751,0.000011,-13.309731,-11.624913,73.822556,0.043883,0.000971,0.948956,0.010676,-0.016998,0.015426,standing
11/12/2017 10:53:12.782761,29.645,40.503,1031.933,143.018998,359.326509,0.004317,-13.607144,-11.641414,74.237938,0.034427,-0.001206,0.945056,0.000292,-0.008143,0.001684,standing
11/12/2017 10:53:12.947671,29.698,41.390,1031.932,143.177116,359.165069,359.830860,-13.434788,-11.788639,74.161018,0.039034,0.001214,0.950174,0.006403,-0.002338,-0.003807,standing
11/12/2017 10:53:13.116062,29.627,40.549,1031.945,143.230911,359.125617,359.814260,-13.616452,-11.642952,74.002579,0.035640,0.000728,0.935065,0.004874,0.005600,0.004132,standing
11/12/2017 10:53:13.284437,29.645,40.287,1031.943,143.558077,359.049581,359.700068,-13.841301,-11.756268,74.161789,0.034427,0.000971,0.939939,-0.012840,0.012624,-0.003503,standing
11/12/2017 10:53:13.452861,29.592,40.363,1031.941,143.532778,359.044614,359.887451,-13.921398,-11.812428,74.535141,0.031033,-0.003377,0.932140,0.007011,-0.009367,0.010545,standing
11/12/2017 10:53:13.614422,29.645,40.506,1031.938,143.746932,359.010873,359.828443,-13.732082,-11.565282,74.331070,0.036367,-0.004101,0.948712,-0.017726,0.024835,0.011154,standing
11/12/2017 10:53:13.779529,29.698,40.234,1031.941,144.000673,359.036714,359.885445,-13.769588,-11.540110,74.090103,0.031276,-0.006031,0.940182,0.002735,-0.015480,0.018479,standing
11/12/2017 10:53:13.948069,29.681,40.287,1031.949,144.210428,358.964950,359.828663,-13.801618,-11.320898,74.218933,0.036367,-0.005789,0.948224,0.004874,0.006204,0.004734,standing
11/12/2017 10:53:14.116661,29.663,40.579,1031.950,144.494127,358.798394,359.920328,-13.459845,-11.390822,74.390915,0.037337,-0.003618,0.949687,0.016169,0.001014,0.015725,standing
11/12/2017 10:53:14.277936,29.698,39.583,1031.955,144.698582,358.645231,359.962693,-13.487651,-11.473790,74.332352,0.032245,-0.004342,0.939939,0.001203,-0.008451,0.004727,standing
11/12/2017 10:53:14.446608,29.521,39.945,1031.958,144.720780,358.584446,359.873424,-13.294233,-11.502999,74.541344,0.030548,-0.000241,0.952611,-0.006429,0.003155,0.017551,standing
11/12/2017 10:53:14.611529,29.556,40.559,1031.967,144.808712,358.687727,359.755796,-13.409706,-11.496685,74.515762,0.032003,0.000486,0.938964,0.013120,-0.012730,0.015409,standing
11/12/2017 10:53:14.780072,29.645,40.480,1031.974,144.912285,358.643449,359.728742,-13.773997,-11.618461,74.325615,0.033215,-0.001930,0.954804,-0.000928,-0.001124,0.019375,standing
11/12/2017 10:53:14.941470,29.610,40.207,1031.983,145.048356,358.572928,359.814024,-13.737754,-11.453899,73.724007,0.033700,-0.004583,0.940670,0.009758,-0.005092,0.016621,standing
11/12/2017 10:53:15.110251,29.698,40.300,1031.977,145.228591,358.701139,359.820945,-13.626297,-11.231021,74.161194,0.025214,-0.002171,0.949930,0.016476,0.010787,0.005930,standing
11/12/2017 10:53:31.679926,29.468,39.603,1031.969,175.253584,39.934801,261.733802,-12.374819,-10.598150,72.835411,-0.000741,0.126009,0.908502,-0.332939,-0.034417,0.138793,walking
11/12/2017 10:53:31.846518,29.485,40.101,1031.960,175.089481,35.057052,268.541131,-11.593320,-10.796416,70.888748,0.060611,0.151503,0.942132,-0.149329,-0.074107,0.097533,walking
11/12/2017 10:53:32.011856,29.592,40.882,1031.963,174.667540,29.189029,275.856598,-10.962206,-11.577395,69.662201,0.100373,-0.006996,1.138064,-0.086710,-0.016686,-0.210635,walking
11/12/2017 10:53:32.173772,29.556,39.712,1031.959,172.944269,25.135187,283.244827,-10.643716,-11.383513,68.737602,0.098918,-0.033530,0.903872,0.302411,0.401146,-0.301654,walking
11/12/2017 10:53:32.339199,29.503,40.108,1031.964,170.549100,19.043899,288.446522,-10.889538,-10.751064,68.682762,0.017941,0.047345,0.790309,-0.068079,0.149164,-0.096404,walking
11/12/2017 10:53:32.508241,29.539,39.835,1031.968,169.695831,15.143040,292.859964,-11.380986,-10.301069,69.029884,0.038306,0.101730,0.908746,-0.123656,0.084730,0.002554,walking
11/12/2017 10:53:32.677470,29.503,40.696,1031.965,169.934970,15.899222,296.865618,-11.217684,-10.428222,69.132401,-0.006418,-0.199494,1.350324,-0.783696,-0.352650,0.293020,walking
11/12/2017 10:53:32.843400,29.432,39.324,1031.963,174.634932,15.799957,300.079283,-11.202689,-10.922014,68.773056,0.019153,-0.106381,0.966989,-0.028361,-0.294312,0.120145,walking
11/12/2017 10:53:33.005307,29.521,39.752,1031.959,175.160010,13.062984,305.273519,-10.841470,-11.028337,68.231514,0.030306,0.079879,0.737670,0.062038,0.046560,-0.153501,walking
11/12/2017 10:53:33.170751,29.432,40.098,1031.961,170.916673,9.995154,308.349263,-10.601598,-11.050879,67.726151,0.054550,0.058270,0.998913,0.066620,0.086877,-0.196872,walking
11/12/2017 10:53:33.339895,29.450,40.656,1031.965,166.077484,8.137419,306.093931,-10.282944,-10.997514,67.584351,0.102312,-0.170064,1.291350,-0.006379,0.315340,-0.256126,walking
11/12/2017 10:53:33.498295,29.397,39.005,1031.966,164.425876,5.420180,306.071640,-10.197447,-10.916649,67.334183,0.079765,-0.070438,0.839048,-0.026537,-0.103713,-0.165413,walking
11/12/2017 10:53:33.667333,29.432,39.958,1031.968,163.956096,4.252183,309.765243,-10.235374,-10.648490,67.450996,0.032730,0.000728,0.778124,-0.106862,0.049001,0.085948,walking
11/12/2017 10:53:33.828619,29.379,39.659,1031.969,163.187850,4.673922,314.707984,-10.202189,-10.827060,67.303322,0.026669,-0.008684,1.174863,-0.236671,0.112836,0.509278,walking
11/12/2017 10:53:33.993975,29.414,39.849,1031.971,162.712304,6.344552,322.865406,-10.387962,-11.315391,67.278282,0.024002,-0.071885,0.849040,0.077314,-0.140062,0.260961,walking
11/12/2017 10:53:34.163000,29.343,40.470,1031.965,163.876018,4.952519,326.953561,-10.499148,-11.693674,67.258553,0.084614,0.028650,0.688931,-0.022564,-0.209037,-0.056688,walking
11/12/2017 10:53:34.324818,29.397,39.822,1031.967,160.825328,4.091333,328.751987,-10.021673,-12.014727,67.205978,0.029336,0.040304,0.899972,0.023862,0.025535,-0.197492,walking
11/12/2017 10:53:34.490300,29.414,40.496,1031.980,156.372099,1.658714,330.709062,-9.607305,-11.418754,66.713722,0.142316,-0.180678,1.278921,-0.636789,0.044472,-0.291260,walking
11/12/2017 10:53:34.652039,29.361,39.613,1031.979,154.928566,0.311494,329.183440,-8.977953,-11.073417,65.856812,0.099403,-0.105174,0.975031,-0.175280,-0.076479,-0.288816,walking
11/12/2017 10:53:34.817465,29.432,39.952,1031.986,154.014373,0.368259,330.963609,-8.781062,-10.580206,66.188965,0.027881,0.094204,0.734015,0.079451,0.091508,0.101526,walking
11/12/2017 10:53:34.986085,29.468,40.171,1031.982,153.352992,1.575312,334.748359,-8.567673,-9.547768,66.119576,0.016001,-0.029671,1.005981,0.328684,0.231091,0.445749,walking
11/12/2017 10:53:35.149425,29.397,39.829,1031.981,155.188209,2.607934,338.834296,-9.308404,-9.951063,66.441299,0.000727,-0.045833,0.897048,0.304554,0.054857,0.292116,walking
11/12/2017 10:53:35.314743,29.450,39.829,1031.975,155.628196,2.023761,342.502495,-9.885168,-10.314146,66.537300,0.048974,0.026464,0.696729,0.130141,-0.196803,0.057234,walking
11/12/2017 10:53:35.482381,29.468,39.925,1031.991,154.412081,0.556190,344.162514,-9.488167,-9.965899,65.880798,0.023517,0.012382,0.882670,-0.025313,-0.064535,-0.045995,walking
11/12/2017 10:53:35.651603,29.468,39.975,1031.998,150.894684,359.554453,342.582145,-8.924099,-9.016453,65.583580,0.164621,-0.141117,1.280383,-0.414434,0.117503,-0.359980,walking
11/12/2017 10:53:35.813399,29.361,40.334,1031.993,149.428734,358.791955,342.265438,-8.776161,-8.035607,65.530373,0.109343,-0.123025,0.998426,0.048296,0.044505,-0.237502,walking
11/12/2017 10:53:38.296662,29.343,39.895,1031.959,139.498827,1.595264,332.282532,-19.831295,0.453531,66.313095,0.072249,0.082307,0.901191,0.393740,-0.153416,0.018451,walking
11/12/2017 10:53:38.456325,29.326,40.008,1031.971,141.667194,1.831807,333.887359,-31.366161,9.195758,66.737564,0.157832,0.165585,0.891930,-0.193912,0.100704,-0.118994,walking
11/12/2017 10:53:38.618239,29.432,39.898,1031.978,143.429328,3.017646,335.850495,-36.930130,12.282562,67.807442,0.054550,0.128680,0.936527,-0.119386,0.228681,0.047162,walking
11/12/2017 10:53:38.783838,29.272,39.942,1031.979,149.300163,4.658050,335.932141,-39.914108,13.744044,68.255478,0.032488,-0.064166,1.212392,-0.209184,-0.274672,-0.032251,walking
11/12/2017 10:53:38.945843,29.414,39.228,1031.980,155.497234,2.874618,336.993809,-40.801746,14.766204,68.725212,-0.025918,-0.076951,0.890712,0.158557,-0.242296,0.014786,walking
11/12/2017 10:53:39.110716,29.272,39.600,1031.981,159.026598,2.476308,339.797223,-40.045940,15.890892,68.504280,0.021820,0.037147,0.772763,-0.031422,0.034425,-0.230171,walking
11/12/2017 10:53:39.279960,29.237,40.028,1031.983,160.459408,2.523262,340.851650,-39.992615,16.326044,68.812790,0.080734,0.081821,1.013779,0.019585,0.049697,-0.318136,walking
11/12/2017 10:53:39.449082,29.184,40.088,1031.986,160.363061,3.165734,335.824890,-40.010284,16.109310,69.063156,0.091645,-0.198046,1.288182,-0.122441,0.402166,-0.464743,walking
11/12/2017 10:53:39.618168,29.290,39.879,1031.974,162.325811,3.415660,333.246214,-40.429882,15.117693,69.551521,0.054308,-0.063684,0.790796,0.133512,-0.107295,-0.061267,walking
11/12/2017 10:53:39.783678,29.379,39.859,1031.974,165.036099,4.000213,335.691444,-41.343910,14.016290,69.130295,0.029821,0.078179,0.765939,0.079145,0.134607,0.037388,walking
11/12/2017 10:53:39.945552,29.255,39.609,1031.975,168.246178,4.740252,340.318696,-41.634796,14.153245,68.506569,-0.001234,-0.034737,1.028157,0.157641,0.038091,0.571589,walking
11/12/2017 10:53:40.111296,29.343,39.556,1031.965,173.420074,6.969678,346.538400,-41.100422,14.357244,68.754829,0.022305,-0.038837,0.849040,0.044326,-0.048652,0.385581,walking
11/12/2017 10:53:40.273266,29.326,39.845,1031.962,177.434258,6.579383,349.152388,-39.784054,14.748253,69.303543,0.069824,0.035205,0.711107,0.095010,-0.061165,0.012641,walking
11/12/2017 10:53:40.438825,29.219,39.935,1031.960,178.323631,6.606289,350.103760,-39.029209,15.179290,69.559418,0.051883,0.042974,0.997939,0.010100,0.071088,-0.242701,walking
11/12/2017 10:53:40.603484,29.113,39.805,1031.968,177.291371,5.572002,349.696728,-39.582462,15.296769,69.102280,0.122193,-0.221204,1.370795,-0.595879,0.176767,-0.310507,walking
11/12/2017 10:53:40.769229,29.255,39.918,1031.979,176.601303,5.066465,347.689198,-40.550297,15.097260,68.473488,0.080250,-0.047763,0.817603,-0.083668,-0.180283,-0.282101,walking
11/12/2017 10:53:40.934851,29.290,39.729,1031.982,177.439258,4.417485,348.351072,-41.164146,14.110949,68.326607,-0.014563,0.094689,0.730116,-0.157577,0.035045,0.008671,walking
11/12/2017 10:53:41.097068,29.255,39.885,1031.978,181.115310,5.215617,350.709956,-41.739914,13.662574,68.641251,0.016244,0.012382,1.086157,0.378457,0.020995,0.569445,walking
11/12/2017 10:53:41.262668,29.255,39.503,1031.977,185.090685,4.936642,351.344349,-41.528973,13.835077,68.744072,0.069582,-0.057171,0.983073,0.376014,0.169741,0.378550,walking
11/12/2017 10:53:41.425194,29.237,40.084,1031.983,187.292875,3.842206,353.891435,-40.557816,14.684199,68.741699,0.092614,0.025979,0.703797,0.159448,-0.113386,0.039211,walking
11/12/2017 10:53:41.590944,29.255,40.041,1031.976,187.636092,3.049029,354.237797,-39.690796,15.254346,69.030334,0.054550,0.043945,0.916300,-0.215623,0.039330,-0.087849,walking
11/12/2017 10:53:41.752917,29.290,39.995,1031.965,185.817718,2.830828,354.869697,-39.478920,15.281887,69.454750,0.182077,-0.047763,1.232862,-0.704315,-0.005263,-0.304096,walking
11/12/2017 10:53:41.918561,29.326,39.746,1031.953,184.608392,0.789973,353.934211,-39.845028,14.868602,70.194374,0.148862,-0.067061,0.918981,-0.230284,-0.131712,-0.299514,walking
11/12/2017 10:53:42.080813,29.326,40.526,1031.943,183.976463,1.704196,354.167645,-40.355370,14.233634,70.012123,-0.001728,0.104158,0.719393,0.088588,0.261380,-0.052725,walking
11/12/2017 10:53:42.246484,29.290,39.942,1031.933,184.565731,3.833856,356.854505,-41.375965,14.031202,69.933014,0.005091,0.019181,1.052770,0.460910,0.000235,0.218194,walking
11/12/2017 10:53:42.408512,29.397,39.467,1031.942,186.712391,2.684082,358.593056,-41.814774,14.169168,70.021095,0.054550,-0.042456,0.968939,0.242831,0.093697,0.322347,walking
11/12/2017 10:53:42.574011,29.272,39.709,1031.939,188.551009,1.257195,0.897155,-41.225407,14.514901,70.982605,0.067158,0.048316,0.706965,0.155465,-0.108490,0.018745,walking
11/12/2017 10:53:42.735976,29.361,39.742,1031.933,187.931525,0.681263,1.018395,-40.422321,15.260662,71.441422,0.067642,0.042731,0.918250,-0.177762,0.055222,-0.093043,walking
11/12/2017 10:53:42.901577,29.414,39.918,1031.934,186.216615,1.613793,1.479517,-40.407425,15.413021,71.762123,0.152983,-0.037631,1.098342,-0.613615,0.108978,-0.329753,walking
11/12/2017 10:53:43.063453,29.326,40.028,1031.941,183.862918,0.529525,359.199524,-41.299046,14.572040,71.837570,0.127284,-0.071885,0.983804,-0.508240,-0.056261,-0.403363,walking
11/12/2017 10:53:43.229136,29.379,39.696,1031.940,184.028960,1.649397,358.793874,-41.930515,12.709645,71.719955,-0.008639,0.061912,0.705259,0.027183,0.133413,0.044096,walking
11/12/2017 10:53:43.398924,29.237,39.659,1031.956,185.696332,3.503290,359.638570,-43.071007,11.917913,70.992790,0.057460,-0.011579,1.058863,0.104152,0.203051,0.452154,walking
11/12/2017 10:53:43.564613,29.308,39.898,1031.960,189.506744,2.625758,358.204104,-43.671265,11.955350,70.685989,0.068855,-0.097214,1.130997,0.497244,0.011545,0.213917,walking
11/12/2017 10:53:46.676438,29.113,39.722,1031.947,194.907552,347.600649,340.063436,-30.481110,4.919756,69.279594,0.123163,0.043460,1.179736,-0.052215,-0.059914,0.141819,walking
11/12/2017 10:53:46.836238,29.059,39.583,1031.953,196.075310,347.137969,338.584113,-16.856432,-3.673088,68.338463,0.111283,-0.144736,1.204594,0.199462,0.128232,0.018425,walking
11/12/2017 10:53:47.001733,29.130,39.819,1031.958,197.764292,347.108543,340.009628,-11.119622,-7.415576,67.691109,0.013092,-0.072850,0.804687,0.080343,-0.169565,0.208098,walking
11/12/2017 10:53:47.163712,29.166,39.732,1031.957,195.363372,347.520733,342.031622,-9.203853,-8.694376,68.049820,0.063763,0.046373,0.770326,-0.056493,0.104402,-0.067702,walking
11/12/2017 10:53:47.329330,29.095,39.829,1031.955,189.066429,347.300199,343.952097,-8.460921,-9.492063,68.653435,0.106676,0.086191,1.024258,0.101721,0.208555,-0.236912,walking
11/12/2017 10:53:47.491347,29.042,39.071,1031.945,183.963786,347.654477,341.848219,-8.059827,-9.684500,68.163681,0.134073,-0.184055,1.172182,0.385467,0.011551,-0.316630,walking
11/12/2017 10:53:47.656822,29.077,39.839,1031.945,181.333180,347.895759,342.584992,-7.993711,-9.372832,68.139984,0.052368,0.014810,0.749855,0.139900,0.148996,-0.070146,walking
11/12/2017 10:53:47.818601,29.042,39.749,1031.940,177.483531,349.419561,344.904471,-7.938376,-8.435228,68.051979,0.044610,0.053172,0.871216,0.016505,0.200308,0.028509,walking
11/12/2017 10:53:47.984202,29.077,40.480,1031.931,178.228664,352.881448,347.368159,-9.056702,-7.842299,68.858292,-0.007405,-0.068991,1.159510,-0.605356,-0.145136,0.790869,walking
11/12/2017 10:53:48.152096,29.113,39.078,1031.924,181.581498,352.819176,348.280267,-10.215143,-8.498875,68.899055,-0.003703,-0.064407,0.874384,-0.209515,-0.352525,0.261554,walking
11/12/2017 10:53:48.321098,29.095,39.696,1031.920,181.078127,351.919735,348.977023,-10.438723,-9.734241,68.663048,0.027396,0.030106,0.705015,0.041236,-0.037912,-0.065254,walking
11/12/2017 10:53:48.490174,29.184,39.839,1031.915,177.261755,350.924235,348.812819,-10.438026,-10.528926,68.037590,0.087523,0.049287,1.069098,-0.153630,-0.103885,-0.273254,walking
11/12/2017 10:53:48.655713,29.113,39.915,1031.912,171.435808,353.175495,342.741078,-9.769285,-10.832006,67.756615,0.119283,-0.197323,1.340089,0.091632,0.274240,-0.576548,walking
11/12/2017 10:53:48.817695,29.130,39.792,1031.927,169.310390,352.664776,342.451432,-9.339716,-10.686407,66.915680,0.055763,-0.043903,0.791284,0.356137,-0.042799,-0.153219,walking
11/12/2017 10:53:48.983148,29.095,40.184,1031.928,167.383717,352.989099,345.387410,-9.198005,-9.759618,67.147568,0.062066,0.082307,0.807368,-0.042147,0.087927,0.108842,walking
11/12/2017 10:53:49.146043,29.130,39.659,1031.941,167.202280,354.208761,348.153590,-9.465980,-9.001315,67.276237,0.003637,-0.018092,1.073485,0.369270,0.092813,0.588677,walking
11/12/2017 10:53:49.311755,29.059,39.805,1031.948,168.962761,355.521048,352.768591,-10.404337,-9.238015,68.044968,0.025214,-0.058618,0.821746,0.043374,-0.240719,0.354105,walking
11/12/2017 10:53:49.473789,29.184,39.879,1031.950,169.591849,354.432538,353.626963,-10.997816,-9.683121,68.109848,0.086553,0.048073,0.717200,-0.035734,-0.314612,-0.041125,walking
11/12/2017 10:53:49.638431,29.042,39.350,1031.956,167.222169,352.722572,353.513590,-10.817817,-9.943796,67.641991,0.065218,0.035933,0.959678,-0.050374,-0.065970,-0.168157,walking
11/12/2017 10:53:49.800568,29.148,39.437,1031.963,163.670252,351.771143,353.873090,-9.987141,-10.104723,66.949677,0.173106,-0.078640,1.231156,-0.901004,0.113014,-0.239629,walking
11/12/2017 10:53:49.966293,29.166,39.443,1031.953,161.762881,351.288589,350.542221,-8.866440,-10.524025,66.463806,0.191775,-0.135569,1.011342,-0.357944,0.032380,-0.363329,walking
11/12/2017 10:53:50.128422,29.095,39.586,1031.944,159.509779,352.667270,351.639666,-8.284302,-10.880443,66.228767,0.016486,0.041275,0.710376,0.265444,0.171351,-0.185567,walking
11/12/2017 10:53:50.294122,29.201,39.795,1031.936,158.609451,352.861930,352.182244,-8.639343,-10.430079,66.676010,0.056490,-0.061513,1.061300,-0.004253,-0.113617,0.435072,walking
11/12/2017 10:53:50.463420,29.130,39.822,1031.934,158.124603,353.718501,352.406871,-9.165918,-10.894847,66.286781,0.110070,0.005827,1.034493,0.504292,0.467621,0.011437,walking
11/12/2017 10:53:50.632646,29.059,39.855,1031.936,158.065781,353.144029,355.521591,-9.922932,-11.700692,65.827003,0.043155,-0.051864,0.676746,0.280104,-0.173177,0.202943,walking
11/12/2017 10:53:50.798797,29.006,39.410,1031.934,157.293492,353.062441,356.533764,-9.513469,-11.603662,66.067215,0.075643,0.079636,0.843922,-0.085802,0.030239,-0.109509,walking
11/12/2017 10:53:50.961040,29.148,39.875,1031.935,152.456202,352.938345,359.808381,-8.850513,-10.387460,65.638962,0.159529,0.037876,1.028888,-0.128563,-0.098654,-0.495881,walking
11/12/2017 10:53:51.127148,29.077,39.689,1031.931,148.866364,353.026366,0.922460,-7.916436,-9.183700,65.270744,0.133345,-0.002171,0.912157,0.198556,0.129199,-0.448539,walking
11/12/2017 10:53:51.296385,29.095,39.879,1031.918,147.230875,353.031603,1.482834,-7.035956,-7.965388,65.609772,-0.014316,0.061912,0.685519,0.057441,0.087965,0.151942,walking
11/12/2017 10:53:51.462004,29.166,39.490,1031.929,148.183317,354.101376,0.671829,-6.642309,-7.264812,65.917633,0.082189,0.034234,0.975518,-0.100162,0.204029,0.432329,walking
11/12/2017 10:53:51.624472,29.024,39.938,1031.935,150.187664,355.173229,359.758440,-7.108571,-7.706059,65.455757,0.110313,-0.082017,1.131728,0.414798,0.528093,-0.010548,walking
11/12/2017 10:53:54.532516,29.042,40.207,1031.905,168.076680,353.872542,318.037783,-19.596554,0.180995,65.813622,0.053823,0.100759,0.894611,-0.312132,0.024435,0.047790,walking
11/12/2017 10:53:54.698624,29.130,39.888,1031.912,167.267795,355.824043,320.013703,-32.339443,8.102199,66.700043,0.026911,0.074780,0.946031,-0.118182,0.117897,-0.085379,walking
11/12/2017 10:53:54.864319,29.130,39.852,1031.908,167.923875,355.298698,324.991845,-38.011524,11.340182,67.220451,0.147407,-0.035701,1.075678,-0.043351,-0.124616,-0.243593,walking
11/12/2017 10:53:55.026592,29.059,39.776,1031.912,167.863046,354.067635,328.628849,-40.310898,12.500006,67.887665,0.089220,-0.056688,0.920443,-0.250129,0.218690,-0.320257,walking
11/12/2017 10:53:55.192267,29.024,39.619,1031.908,168.596430,355.152023,331.759915,-41.431652,13.050293,68.668556,0.033942,0.000243,0.763259,0.078822,0.022908,0.066727,walking
11/12/2017 10:53:55.361624,29.077,38.407,1031.903,170.246891,356.223185,334.514891,-42.262367,13.289708,68.840912,0.093099,-0.000965,1.109552,0.121277,0.127977,0.108265,walking
11/12/2017 10:53:55.527950,29.006,39.619,1031.893,174.422636,356.291685,333.309019,-42.488121,14.187314,68.500809,0.020365,-0.081293,1.150005,0.598057,0.071777,0.090856,walking
11/12/2017 10:53:55.686984,28.971,38.905,1031.905,177.520687,355.199497,333.819849,-41.981140,15.268419,68.520851,0.056490,-0.063925,0.796889,0.057136,-0.141720,0.012054,walking
11/12/2017 10:53:55.856072,28.971,40.025,1031.919,179.693944,353.861414,336.187077,-41.198872,15.580297,68.880882,0.047762,0.046616,0.792259,-0.131014,-0.102916,-0.052388,walking
11/12/2017 10:53:56.025214,28.971,39.673,1031.922,179.282220,353.059729,338.027158,-40.460224,15.066517,69.430695,0.098433,-0.013509,1.084207,0.015903,-0.115434,-0.271980,walking
11/12/2017 10:53:56.194324,29.042,39.752,1031.912,178.631795,350.090765,343.918642,-40.335220,14.325928,69.457932,0.123890,-0.023881,0.878527,0.094399,-0.170717,-0.351087,walking
11/12/2017 10:53:56.360087,29.042,40.221,1031.909,178.749985,350.186855,347.388911,-40.507736,14.009457,69.717369,-0.007158,0.120911,0.681133,0.011933,0.205882,0.147379,walking
11/12/2017 10:53:56.529341,29.024,39.736,1031.910,180.854411,352.783919,348.324734,-41.007401,13.872760,69.910851,0.067158,0.007769,1.056426,-0.018000,0.087068,0.261916,walking
11/12/2017 10:53:56.694934,28.882,39.533,1031.910,187.054870,354.030768,345.422713,-41.549351,14.041965,69.363342,0.064248,-0.151007,1.273316,-0.032355,-0.134981,0.226181,walking
11/12/2017 10:53:56.864331,28.882,39.795,1031.914,191.117617,353.240654,343.837138,-41.464455,14.356045,69.324234,0.029578,-0.051864,0.831981,0.054686,-0.101976,0.147353,walking
11/12/2017 10:53:57.026601,29.042,39.776,1031.916,191.938947,353.026455,345.557230,-40.733559,14.678958,69.117104,0.013577,0.030835,0.803469,-0.028091,0.007373,-0.045972,walking
11/12/2017 10:53:57.192453,29.006,39.739,1031.909,190.023926,353.356441,347.526969,-40.261559,15.362042,69.591858,0.040973,0.044917,1.055451,0.216255,-0.038442,-0.205713,walking
11/12/2017 10:53:57.354528,28.935,39.742,1031.906,187.172117,354.250943,351.065834,-40.665482,14.788760,69.791122,0.114919,-0.010131,0.900947,0.295362,-0.103805,-0.445173,walking
11/12/2017 10:53:57.520361,28.953,39.925,1031.909,186.816292,353.104210,353.473218,-40.520752,14.287188,70.147209,0.051156,0.058756,0.739620,0.189683,0.158867,0.095443,walking
11/12/2017 10:53:57.682416,28.953,39.626,1031.906,188.086994,355.348312,353.973392,-41.227825,14.474083,70.515945,0.036367,0.034477,0.970401,0.017419,0.130156,0.118045,walking
11/12/2017 10:53:57.848159,29.042,39.663,1031.900,193.153983,355.869793,351.509934,-42.081589,15.237605,70.134514,0.069097,-0.137981,1.224333,-0.434316,-0.204903,0.192265,walking
11/12/2017 10:53:58.017502,28.971,40.121,1031.888,197.260730,354.427861,349.522495,-41.549458,15.639976,70.394218,0.004122,-0.082499,0.900460,0.038188,-0.295006,0.129652,walking
11/12/2017 10:53:58.183024,28.829,39.646,1031.887,197.413316,353.776710,350.975074,-40.441895,16.190115,70.710197,0.036367,0.064583,0.741569,0.113324,0.057464,-0.096979,walking
11/12/2017 10:53:58.345287,28.935,39.467,1031.885,195.132785,353.799053,352.605163,-40.082905,16.530914,71.366623,0.055763,0.042974,1.050821,0.171357,0.040359,-0.268022,walking
11/12/2017 10:53:58.511141,29.024,39.600,1031.883,192.312599,354.873383,353.305426,-40.462261,15.754685,71.104683,0.105222,-0.006754,0.894367,0.377218,-0.031723,-0.444256,walking
11/12/2017 10:53:58.673647,29.024,39.776,1031.874,189.595700,353.698208,355.228113,-41.181011,15.034986,71.081253,0.053096,0.056813,0.719637,0.090112,0.156424,-0.153179,walking
11/12/2017 10:53:58.839383,29.024,40.294,1031.875,189.429959,354.252357,356.336674,-41.733604,14.300545,71.057785,0.049701,0.095660,0.856594,0.040935,0.216588,0.109184,walking
11/12/2017 10:53:59.001505,28.971,40.234,1031.867,193.114559,355.208736,357.249594,-42.568398,14.420466,71.083168,0.067885,-0.090218,1.208493,-0.492350,-0.222013,0.517547,walking
11/12/2017 10:53:59.167256,29.077,39.925,1031.868,197.313514,354.368557,354.718706,-42.615955,15.047466,70.880943,-0.007652,-0.130262,0.992821,-0.079405,-0.244920,0.140338,walking
11/12/2017 10:53:59.336473,29.059,39.799,1031.868,197.665186,353.533279,355.223841,-41.918533,15.686846,70.805702,0.050671,0.057056,0.711107,0.060471,-0.071726,-0.151935,walking
11/12/2017 10:53:59.502036,29.077,38.298,1031.874,196.084927,353.348728,356.127112,-41.350170,15.638712,71.346375,0.083644,0.022337,1.035468,0.025346,0.014406,-0.255158,walking
11/12/2017 10:53:59.664153,28.988,39.490,1031.870,193.739262,354.193561,352.611527,-41.536213,15.315675,71.363319,0.108858,-0.094319,1.170720,0.167372,0.228514,-0.372444,walking
11/12/2017 10:53:59.829914,28.971,39.962,1031.867,190.884011,354.601467,352.412187,-42.314316,14.501713,71.263466,0.120738,-0.038355,0.885351,0.057111,0.080074,-0.200486,walking
11/12/2017 10:53:59.992048,29.059,39.596,1031.868,191.671094,355.534594,352.943280,-43.083782,13.807901,70.969521,0.043640,0.067739,0.831250,0.030844,-0.002087,0.222539,walking
11/12/2017 10:54:00.167153,28.917,39.656,1031.879,194.758504,356.309301,354.776443,-43.779785,13.693117,70.938789,0.087038,-0.058377,1.112720,-0.226025,-0.068366,0.723143,walking
11/12/2017 10:54:05.697655,29.255,39.839,1031.885,84.058278,332.464678,4.960857,-31.161539,9.760040,70.022568,-0.012589,-0.029912,0.936527,0.091930,-0.019802,-0.452468,spin_left
11/12/2017 10:54:05.864700,29.166,40.074,1031.886,87.883129,333.123049,4.627794,-16.807886,5.674298,69.071991,-0.000987,-0.003618,0.975518,-0.053150,0.037619,-0.668103,spin_left
11/12/2017 10:54:06.030695,29.219,39.590,1031.889,90.026941,335.124473,4.510792,-11.153571,4.799836,68.648903,-0.029127,0.042731,0.883888,-0.058648,0.040062,-0.747210,spin_left
11/12/2017 10:54:06.193047,29.113,39.882,1031.886,89.920301,336.504177,6.110821,-8.883722,5.368369,68.643066,0.071522,0.059727,0.994771,0.053751,-0.100131,-1.025459,spin_left
11/12/2017 10:54:06.358906,29.130,39.995,1031.886,89.343362,339.075167,10.097941,-8.323917,7.567667,68.034676,0.009455,-0.005307,0.848796,0.171648,0.058694,-0.959486,spin_left
11/12/2017 10:54:06.524740,29.024,39.809,1031.888,89.954534,339.741292,12.356146,-8.686173,10.761603,67.922829,0.116616,-0.030877,0.956998,0.029317,-0.174046,-1.043480,spin_left
11/12/2017 10:54:06.687084,29.166,39.859,1031.906,92.123160,340.673683,12.890723,-9.962159,13.990598,67.778259,0.031033,0.034234,0.984292,-0.033908,-0.092190,-0.598770,spin_left
11/12/2017 10:54:06.852764,29.059,38.852,1031.900,96.462830,342.439498,13.642427,-10.983083,16.385067,67.479332,0.059399,0.073081,0.913620,-0.008252,0.084045,-0.621372,spin_left
11/12/2017 10:54:07.014816,29.237,39.978,1031.902,100.578620,342.484110,12.527544,-12.579679,17.991465,67.758034,0.047519,0.014325,0.832712,0.134996,-0.097688,-0.591134,spin_left
11/12/2017 10:54:07.180684,29.095,39.972,1031.902,106.540132,342.507805,10.767616,-13.908027,19.261784,67.902657,0.006061,0.054143,0.960166,0.032676,-0.122428,-0.405126,spin_left
11/12/2017 10:54:07.342881,29.006,39.895,1031.912,111.841260,343.393418,8.881635,-15.022860,20.073467,68.138161,0.001455,-0.007237,1.004275,-0.083693,0.122529,-0.773477,spin_left
11/12/2017 10:54:07.508796,29.024,40.068,1031.917,113.848694,345.366887,8.577115,-16.459175,20.720184,67.920135,0.034912,0.015539,0.988922,0.041229,0.061137,-1.004384,spin_left
11/12/2017 10:54:07.678239,29.024,39.938,1031.918,113.433979,346.973740,8.677801,-18.819128,21.839859,68.494881,-0.004937,-0.053070,1.008661,0.014350,0.039757,-1.021489,spin_left
11/12/2017 10:54:07.844058,29.042,39.779,1031.902,114.473042,347.417596,8.359409,-21.653069,23.364876,67.745926,0.094069,-0.016403,0.920687,-0.063535,-0.067755,-0.922528,spin_left
11/12/2017 10:54:08.006390,29.077,39.855,1031.900,113.717896,348.639573,7.616592,-24.890749,24.106161,67.799774,0.108131,0.022337,1.005493,-0.126759,0.020515,-0.873354,spin_left
11/12/2017 10:54:08.172123,28.988,39.869,1031.907,114.943942,349.203438,8.087846,-27.449135,24.026030,68.170731,0.068612,0.040546,0.924830,0.060776,0.028761,-0.647028,spin_left
11/12/2017 10:54:08.334423,29.059,40.529,1031.907,118.338587,349.249168,7.715809,-30.140165,23.663366,68.344414,0.096736,-0.023640,1.018409,-0.067505,-0.148084,-0.374582,spin_left
11/12/2017 10:54:08.500230,28.900,39.985,1031.896,122.063663,349.515589,7.186269,-31.703873,23.320269,69.238884,0.015517,-0.008443,0.977468,0.035425,-0.041183,-0.376720,spin_left
11/12/2017 10:54:08.662453,28.864,39.952,1031.889,125.111567,349.292260,6.469263,-32.894634,23.322039,69.531097,0.045337,0.019666,0.943594,-0.047652,-0.035990,-0.535240,spin_left
11/12/2017 10:54:08.828233,29.024,39.908,1031.898,125.650195,350.451497,6.204213,-34.563469,23.116768,69.515816,0.019638,0.057542,0.924830,-0.044598,0.026623,-0.731633,spin_left
11/12/2017 10:54:08.990512,28.935,39.855,1031.899,124.541246,351.970280,6.456732,-36.484425,21.951078,69.446526,0.013092,-0.004342,0.975518,0.028400,-0.028049,-0.896261,spin_left
11/12/2017 10:54:09.154909,28.829,39.702,1031.903,123.430903,352.795257,6.374118,-38.334606,20.367504,69.751045,-0.002962,0.015053,0.934577,0.166456,-0.016748,-0.705671,spin_left
11/12/2017 10:54:09.317165,28.988,39.898,1031.901,123.425589,353.674356,6.979602,-40.544670,18.538986,69.944641,0.076370,0.009469,0.900704,0.092236,0.104509,-0.742323,spin_left
11/12/2017 10:54:09.482858,28.988,39.457,1031.893,122.741942,354.893129,6.333078,-41.933083,16.891050,70.048973,0.089947,0.033991,0.995014,-0.073309,0.012268,-0.518136,spin_left
11/12/2017 10:54:09.645099,29.006,39.769,1031.892,124.355820,354.829744,6.716837,-43.092606,15.387830,70.136353,0.036124,0.080122,0.903140,0.098650,0.087404,-0.405736,spin_left
11/12/2017 10:54:09.810849,29.059,40.141,1031.895,125.964480,354.444071,6.989250,-43.906879,13.916422,70.450539,0.084856,0.077936,0.827838,-0.119124,-0.005753,-0.394435,spin_left
11/12/2017 10:54:09.980055,28.971,39.550,1031.898,127.405868,354.193029,6.542566,-44.314354,12.084379,70.419960,0.004364,0.003885,0.980392,-0.139588,-0.114792,-0.327546,spin_left
11/12/2017 10:54:10.145829,28.917,40.304,1031.890,127.826130,354.680927,5.811006,-44.578876,10.457949,70.543900,0.019153,0.041760,0.964552,-0.030854,0.026929,-0.617096,spin_left
11/12/2017 10:54:10.308125,29.095,40.121,1031.880,126.205558,355.773975,6.070880,-44.572140,8.645815,71.101173,0.031760,0.000971,0.964552,0.055278,-0.000255,-0.806159,spin_left
11/12/2017 10:54:10.473889,29.059,40.254,1031.872,123.219276,357.194301,6.096807,-44.529072,6.708066,71.202698,0.057217,0.046859,0.860737,0.079713,0.071827,-0.757595,spin_left
11/12/2017 10:54:10.635315,29.024,39.905,1031.877,120.376770,358.431269,6.055150,-44.896301,4.029422,71.297112,0.105949,0.001214,0.891687,-0.133173,0.131081,-0.886793,spin_left
11/12/2017 10:54:10.801310,28.935,40.915,1031.881,117.971697,359.186074,4.422576,-44.803532,1.311334,70.960129,0.096736,0.016267,1.015728,-0.206172,-0.046070,-0.614652,spin_left
11/12/2017 10:54:10.963534,29.219,40.413,1031.889,118.302169,358.930016,4.149649,-44.542671,-1.125142,70.948730,0.030306,0.043460,0.925073,0.063831,-0.031714,-0.419481,spin_left
11/12/2017 10:54:11.129422,29.095,40.423,1031.885,119.927153,357.528145,3.031310,-43.732841,-3.181548,70.992180,0.123163,-0.046798,1.035955,-0.072698,-0.232384,-0.237443,spin_left
11/12/2017 10:54:11.291761,29.130,40.427,1031.875,122.302802,357.305484,2.616215,-43.139442,-4.475955,71.382126,0.012850,-0.002895,0.918006,0.087654,-0.055538,-0.230724,spin_left
11/12/2017 10:54:11.457595,29.059,40.725,1031.887,123.149431,357.125183,2.087213,-42.578995,-5.154737,71.652794,0.048247,0.025008,0.935309,-0.153637,-0.025911,-0.505002,spin_left
11/12/2017 10:54:11.626794,29.006,40.669,1031.892,121.228413,357.443546,2.264641,-41.672352,-6.644498,71.650284,0.030548,0.031320,0.964065,0.100788,0.125889,-0.701701,spin_left
11/12/2017 10:54:11.792475,29.077,40.862,1031.894,117.162961,357.964417,3.145413,-40.673374,-8.293033,71.372482,0.025942,-0.046557,0.972594,-0.065367,0.052280,-0.937800,spin_left
11/12/2017 10:54:11.954778,29.148,40.818,1031.886,114.453910,358.457602,2.934131,-38.818882,-9.988508,71.375938,0.035397,0.011411,0.868292,-0.051928,0.018071,-0.783862,spin_left
11/12/2017 10:54:12.123211,29.130,39.360,1031.878,109.955350,358.859614,1.179067,-37.095016,-11.425879,71.227760,0.102070,-0.008925,0.992334,-0.182043,0.078241,-0.860526,spin_left
11/12/2017 10:54:12.289100,29.184,40.938,1031.876,108.190033,358.136302,0.931114,-35.292336,-13.239912,71.031693,0.057460,0.023308,0.970401,0.103537,-0.006058,-0.570059,spin_left
11/12/2017 10:54:12.458573,29.130,41.074,1031.876,107.993801,357.575984,1.173914,-33.335346,-14.563641,70.891754,0.067400,0.002428,0.937989,-0.044903,-0.163661,-0.391076,spin_left
11/12/2017 10:54:12.624402,29.219,41.034,1031.888,107.506454,357.719793,2.581281,-31.435863,-14.738448,71.069359,0.028851,0.041032,0.873166,-0.003059,0.030899,-0.456438,spin_left
11/12/2017 10:54:12.786693,29.077,41.131,1031.883,107.126237,357.152267,2.929760,-29.710361,-14.638531,71.189987,0.037822,0.024279,0.913620,-0.161884,-0.126704,-0.458882,spin_left
11/12/2017 10:54:12.952327,29.130,41.081,1031.897,104.299523,357.753726,2.531641,-27.968784,-15.087358,70.643883,0.014789,0.002914,0.957485,-0.034213,0.037619,-0.765231,spin_left
11/12/2017 10:54:13.114562,29.184,41.104,1031.896,99.863738,358.480000,3.364074,-25.941704,-15.144751,70.638481,0.043883,-0.012061,0.975762,0.007631,0.077631,-0.951239,spin_left
11/12/2017 10:54:13.280446,29.166,41.350,1031.901,95.889367,359.499421,4.302958,-23.685366,-14.504639,71.415504,0.024729,0.032777,0.807611,-0.029632,-0.057065,-0.687956,spin_left
11/12/2017 10:54:13.449817,29.130,41.400,1031.908,91.621626,0.436672,3.740095,-21.290405,-13.820574,71.251465,0.124617,0.036662,0.913132,-0.203423,0.056556,-0.983615,spin_left
11/12/2017 10:54:13.618666,29.006,41.154,1031.908,89.463361,359.532277,3.370903,-18.560738,-13.438748,70.308205,0.038791,0.036662,0.988678,0.074826,-0.127926,-0.552955,spin_left
11/12/2017 10:54:13.784545,29.130,41.792,1031.907,89.005916,358.383501,3.731200,-16.225348,-12.443388,70.194633,0.090432,0.015296,0.932384,0.013434,-0.236049,-0.345872,spin_left
11/12/2017 10:54:13.953885,29.166,41.715,1031.903,89.500333,357.775058,3.937345,-14.125512,-11.001364,69.923393,0.033215,0.027678,0.993796,-0.028410,0.047698,-0.441777,spin_left
11/12/2017 10:54:14.120566,29.130,41.423,1031.893,89.549886,357.708507,3.605327,-12.465662,-9.689194,69.646019,0.046307,0.028892,0.896317,-0.119124,-0.112959,-0.446359,spin_left
11/12/2017 10:54:14.282879,29.201,41.549,1031.887,87.954846,357.887702,2.707344,-11.043124,-8.700833,69.871887,0.034912,0.059727,0.976737,-0.015887,0.078241,-0.689789,spin_left
11/12/2017 10:54:14.448945,29.042,41.303,1031.887,84.570275,358.227908,4.001573,-9.770381,-7.416239,69.137787,0.050429,0.002914,0.923611,0.050392,0.009825,-0.820208,spin_left
11/12/2017 10:54:14.611290,29.184,41.011,1031.874,82.947532,358.754535,4.032832,-8.677697,-5.108426,68.974335,0.014547,0.052200,0.854401,0.057722,-0.011250,-0.597243,spin_left
11/12/2017 10:54:14.777232,29.148,41.170,1031.892,81.117198,359.766890,3.558722,-7.848949,-3.047798,68.717125,0.141346,0.024036,0.902897,-0.203118,0.174147,-0.841589,spin_left
11/12/2017 10:54:14.943067,29.166,41.310,1031.892,82.064395,358.736242,2.337614,-7.196674,-1.362660,68.449409,0.079280,0.021123,1.029132,-0.024745,-0.112959,-0.475070,spin_left
11/12/2017 10:54:15.105762,29.184,41.267,1031.883,83.502847,359.450122,3.191941,-6.850220,-0.007923,68.674759,0.090432,0.031806,0.913376,0.081546,0.069995,-0.540127,spin_left
11/12/2017 10:54:15.271894,29.113,41.974,1031.883,87.007574,357.881154,3.421673,-6.429043,1.954306,68.582520,0.047035,-0.009890,0.968939,0.039701,-0.098909,-0.394741,spin_left
11/12/2017 10:54:15.434419,29.130,41.300,1031.887,91.597249,357.845782,1.996826,-6.394742,3.435590,68.816261,-0.001481,-0.026052,0.967233,-0.129814,0.002800,-0.482400,spin_left
11/12/2017 10:54:15.600411,29.148,41.562,1031.895,96.833081,357.992556,359.922967,-6.286841,4.758689,68.292427,0.004364,0.023551,1.009392,-0.105685,0.042811,-0.581055,spin_left
11/12/2017 10:54:15.767748,29.201,41.111,1031.906,99.510440,358.028963,0.541315,-6.397841,6.034263,68.156181,0.023517,-0.006031,0.948224,0.109951,-0.027133,-0.764314,spin_left
11/12/2017 10:54:15.930236,29.201,41.204,1031.908,101.535837,359.348776,1.190881,-7.006040,8.146412,67.853317,0.043398,0.015782,0.854888,0.027484,0.084045,-0.779281,spin_left
11/12/2017 10:54:16.096389,29.255,41.200,1031.905,101.975790,359.328467,1.147323,-7.752842,10.086431,67.693123,0.150316,-0.015680,0.875846,-0.026883,0.120697,-1.006522,spin_left
11/12/2017 10:54:16.262248,29.166,41.974,1031.905,104.238153,358.627281,1.100821,-8.794164,12.437037,67.714180,0.042670,0.023308,0.999401,-0.070865,-0.125177,-0.498282,spin_left
11/12/2017 10:54:16.424660,29.059,41.529,1031.928,108.096425,359.109677,2.310488,-9.802690,14.694921,67.601303,0.069097,0.052443,0.886082,0.098650,0.018682,-0.496450,spin_left
11/12/2017 10:54:16.590981,29.148,41.612,1031.920,113.240472,357.634281,2.191722,-10.631752,16.534058,67.350983,0.054793,0.013596,0.922149,-0.042460,-0.164577,-0.337014,spin_left
11/12/2017 10:54:16.753474,29.290,41.443,1031.922,118.404922,357.553717,1.714768,-11.321640,17.664846,67.538307,0.045095,0.016510,0.912157,0.096206,-0.017054,-0.356562,spin_left
11/12/2017 10:54:16.919497,29.148,40.543,1031.918,122.423805,357.332179,0.288142,-11.895160,18.867924,67.441116,0.010668,-0.005307,0.993065,-0.123400,0.145131,-0.703533,spin_left
11/12/2017 10:54:17.085477,29.077,41.340,1031.908,124.372895,357.106489,0.735010,-13.228271,19.685173,67.585365,0.036609,0.010683,0.950174,0.164623,-0.038128,-0.779586,spin_left
11/12/2017 10:54:17.248037,29.130,41.353,1031.904,124.699051,359.086253,0.793012,-15.462761,20.966478,67.259872,0.063521,0.013354,0.889250,-0.139588,0.052280,-0.740185,spin_left
11/12/2017 10:54:17.413833,29.184,41.469,1031.910,124.376761,359.311356,0.060862,-18.157732,22.240673,67.627373,0.181350,-0.050175,0.973813,-0.155165,0.118253,-0.986975,spin_left
11/12/2017 10:54:17.576278,29.219,41.672,1031.909,126.484599,357.820457,0.224833,-20.950047,22.743250,67.961357,0.049217,0.025979,0.961384,0.053140,-0.161523,-0.488814,spin_left
11/12/2017 10:54:17.742191,29.006,42.064,1031.906,128.638786,357.508394,0.812180,-22.895912,23.171282,68.464676,0.113707,-0.007478,0.874384,0.019237,-0.166410,-0.496450,spin_left
11/12/2017 10:54:17.904602,29.201,41.762,1031.912,131.301972,357.094184,1.547228,-24.429276,23.846802,68.459679,0.020850,0.020395,0.922636,-0.116986,0.000662,-0.433836,spin_left
11/12/2017 10:54:18.070775,29.237,41.715,1031.907,134.364164,356.558068,1.295144,-25.647276,23.899261,69.104607,0.029094,0.016510,0.936040,-0.115764,-0.020719,-0.364808,spin_left
11/12/2017 10:54:18.236943,29.166,41.184,1031.910,136.051084,358.017094,1.036151,-26.975811,23.765915,69.434677,0.023517,0.046131,0.953586,-0.002143,0.143604,-0.613736,spin_left
11/12/2017 10:54:18.399369,29.290,41.918,1031.914,135.353053,358.902585,1.542392,-29.104023,23.927303,69.138092,0.037337,-0.032565,1.000376,-0.055594,0.056250,-0.890153,spin_left
11/12/2017 10:54:18.565198,29.219,41.715,1031.905,134.988963,359.106809,1.606326,-31.676586,23.353313,69.287437,0.013819,0.003885,0.895830,-0.031770,-0.056760,-0.602435,spin_left
11/12/2017 10:54:18.727644,29.290,41.569,1031.896,134.017382,359.955311,1.345662,-34.517494,22.392658,69.335114,0.078795,0.018938,0.917762,-0.109044,0.102065,-0.827233,spin_left
11/12/2017 10:54:18.893496,29.184,41.430,1031.890,135.457131,358.573517,1.215599,-36.980091,21.319012,69.456680,0.041943,0.056328,0.980392,0.032982,-0.172519,-0.305249,spin_left
11/12/2017 10:54:19.055873,29.237,40.141,1031.895,137.910358,357.113353,0.620274,-38.125187,20.338110,69.706200,0.111768,-0.042215,1.025476,-0.071782,-0.263538,-0.332127,spin_left
11/12/2017 10:54:19.214700,29.095,41.785,1031.887,140.464753,355.931133,0.170217,-38.835232,19.329256,71.082138,0.016729,0.000971,0.976981,-0.051012,-0.105629,-0.321742,spin_left
11/12/2017 10:54:19.380667,29.255,39.948,1031.893,141.620708,355.402462,359.187755,-39.126503,18.594408,71.140274,0.023275,0.002671,0.991359,-0.112404,0.036397,-0.519052,spin_left
11/12/2017 10:54:19.547153,29.184,41.582,1031.891,141.005786,355.897637,359.387182,-39.841324,17.789965,71.247711,0.036609,0.041275,0.939451,0.034204,-0.010945,-0.663522,spin_left
11/12/2017 10:54:19.709735,29.166,41.831,1031.895,138.157515,356.399577,359.004254,-40.946877,16.218954,71.127708,0.059642,-0.006754,0.994039,-0.101103,0.153072,-0.722776,spin_left
11/12/2017 10:54:19.875686,29.237,41.529,1031.890,136.147964,356.218934,358.673571,-42.026695,13.932317,70.449837,0.138679,0.001214,0.888275,-0.038795,0.131692,-0.803715,spin_left
11/12/2017 10:54:20.038172,29.290,40.446,1031.877,133.752972,355.863876,357.753167,-43.286263,11.167736,70.422951,0.118556,-0.003377,0.996476,-0.164938,-0.046375,-0.483927,spin_left
11/12/2017 10:54:20.203926,29.237,41.263,1031.867,132.872492,355.921432,358.479459,-44.152672,8.303609,70.408333,0.055763,0.001700,0.950661,0.026262,0.042200,-0.464990,spin_left
11/12/2017 10:54:20.366437,29.184,41.496,1031.873,133.629578,354.252541,359.166656,-44.207737,6.257623,70.456696,0.063521,0.014082,0.850502,0.164929,-0.099215,-0.406653,spin_left
11/12/2017 10:54:20.532145,29.219,41.672,1031.883,133.776263,354.255553,359.859246,-43.982143,4.375362,70.778206,0.017699,-0.004825,0.873653,-0.077890,0.019904,-0.370306,spin_left
11/12/2017 10:54:20.701514,29.166,41.310,1031.886,132.871946,355.268801,359.372310,-43.914280,2.655008,70.693039,0.030063,0.023065,0.938477,-0.081861,0.152156,-0.621066,spin_left
11/12/2017 10:54:20.867925,29.166,41.662,1031.892,130.525079,355.443998,0.452589,-44.108292,0.250025,70.935379,0.049459,-0.031118,0.933846,0.100788,-0.037823,-0.730106,spin_left
11/12/2017 10:54:21.030367,29.255,41.715,1031.902,127.780982,356.656882,0.967760,-44.162891,-1.771996,71.254623,-0.001234,0.026464,0.884376,-0.008557,0.039452,-0.528826,spin_left
11/12/2017 10:54:21.203254,29.166,41.629,1031.905,125.313522,358.740031,1.482065,-43.688251,-3.792692,70.721405,0.119768,-0.017609,0.896317,-0.061397,0.154294,-0.689483,spin_left
11/12/2017 10:54:21.365602,29.272,41.536,1031.912,125.577590,357.837862,0.873529,-43.404591,-5.644756,70.200005,0.066673,0.016267,1.008905,0.033898,-0.213141,-0.202013,spin_left
11/12/2017 10:54:21.531830,29.255,41.048,1031.915,126.723710,357.397277,1.403137,-42.540352,-6.937336,70.276260,0.107404,0.004370,0.912401,0.043672,-0.070504,-0.287534,spin_left
11/12/2017 10:54:21.697877,29.255,41.905,1031.911,127.029853,355.957655,2.358928,-41.360176,-7.492330,70.880280,0.094069,0.013596,0.839536,0.019237,-0.093412,-0.430171,spin_left
11/12/2017 10:54:21.860144,29.166,41.576,1031.907,126.218699,355.552248,2.139136,-39.868546,-9.150547,71.079338,0.001697,0.006313,0.995989,-0.215335,-0.057065,-0.495839,spin_left
11/12/2017 10:54:22.026049,29.184,41.702,1031.913,123.254138,356.942968,1.745115,-38.523197,-10.252845,71.189171,0.031276,0.029135,0.939939,-0.008557,0.093513,-0.721554,spin_left
11/12/2017 10:54:22.188510,29.290,42.436,1031.910,118.404444,357.451323,1.548037,-36.948341,-11.419122,71.357651,0.085341,-0.085876,1.002325,-0.192122,0.114282,-0.999192,spin_left
11/12/2017 10:54:22.354379,29.255,41.845,1031.904,114.371258,357.747913,0.425694,-35.555370,-12.619144,71.552116,0.136982,-0.042697,0.917031,-0.308492,-0.050040,-0.987280,spin_left
11/12/2017 10:54:22.517687,29.237,42.031,1031.914,109.461233,357.322664,359.352005,-33.439449,-14.519044,71.299988,0.079522,-0.007478,0.999401,-0.104768,-0.128536,-0.795774,spin_left
11/12/2017 10:54:22.683623,29.343,42.047,1031.915,107.153053,356.060384,359.804658,-30.865879,-15.912623,70.760529,0.087765,0.008983,0.920687,0.044283,0.015628,-0.582582,spin_left
11/12/2017 10:54:22.849780,29.290,41.848,1031.926,106.445281,355.101158,359.603737,-28.236334,-16.401707,70.766777,0.127769,-0.054517,0.977712,-0.019553,-0.091274,-0.485760,spin_left
11/12/2017 10:54:23.012355,29.255,41.812,1031.923,106.338054,354.451206,358.800918,-25.972769,-16.490507,70.666870,0.009213,-0.017127,0.952367,-0.040322,-0.053705,-0.482400,spin_left
11/12/2017 10:54:23.178474,29.201,41.018,1031.922,103.740144,355.255004,358.716898,-24.100800,-16.619802,70.116440,0.038549,0.016510,0.889981,0.029928,0.151240,-0.790276,spin_left
11/12/2017 10:54:23.344598,29.113,41.981,1031.918,99.045215,355.326093,359.957298,-22.040070,-16.501656,69.340050,0.084371,-0.004101,0.945787,0.062609,0.026012,-0.983004,spin_left
11/12/2017 10:54:23.507246,29.201,42.067,1031.921,93.651961,357.285905,1.627516,-19.630907,-15.703725,69.085472,0.043155,0.008983,0.791040,0.176535,0.045560,-0.849835,spin_left
11/12/2017 10:54:23.673231,29.255,41.968,1031.918,88.295235,358.076094,1.096895,-17.272308,-14.686262,69.216805,0.194927,-0.080087,0.947981,-0.275200,0.126500,-1.148243,spin_left
11/12/2017 10:54:23.835746,29.308,41.762,1031.923,87.491308,356.690133,0.740774,-14.967826,-13.523408,68.384003,0.055035,0.039090,0.981124,0.032066,-0.251015,-0.515081,spin_left
11/12/2017 10:54:24.001894,29.272,41.606,1031.916,86.480160,357.183473,1.941312,-12.586116,-12.148600,68.291985,0.066915,-0.061513,0.917762,-0.021080,-0.014305,-0.444221,spin_left
11/12/2017 10:54:24.170264,29.290,41.838,1031.914,87.648717,355.917929,2.632798,-10.753496,-10.616792,68.421661,0.099160,0.021851,0.813460,0.117281,-0.010334,-0.432614,spin_left
11/12/2017 10:54:24.336390,29.255,42.037,1031.909,87.870780,355.106810,4.017967,-9.270927,-9.329173,68.338890,0.023032,0.014082,0.882670,-0.057426,-0.116625,-0.468350,spin_left
11/12/2017 10:54:24.498834,29.255,40.779,1031.907,84.839002,356.433363,3.516912,-8.334769,-8.275557,67.702423,0.051156,0.044917,0.956023,-0.073309,0.193390,-0.852279,spin_left
11/12/2017 10:54:24.664877,29.148,41.944,1031.907,80.150836,356.909254,4.503335,-7.047576,-6.388615,67.763237,0.099645,-0.093837,0.977224,-0.178378,0.051974,-1.197723,spin_left
11/12/2017 10:54:24.827444,29.272,41.988,1031.910,78.717609,356.777032,2.799650,-5.902276,-3.350344,68.030540,0.099888,-0.020987,0.899241,-0.265426,-0.214058,-0.949407,spin_left
11/12/2017 10:54:24.993380,29.290,42.144,1031.906,76.990159,357.238548,0.719200,-5.409662,-0.456089,68.167397,0.114434,-0.032807,1.017434,-0.182959,0.031510,-0.823874,spin_left
11/12/2017 10:54:25.159345,29.255,41.795,1031.899,78.722288,357.081320,0.937324,-4.844655,2.044069,67.376671,0.099645,0.038361,0.911914,0.087349,0.156127,-0.648250,spin_left
11/12/2017 10:54:25.321807,29.219,40.672,1031.895,82.627988,355.777073,359.971886,-4.842198,4.388501,67.123383,0.112495,-0.076951,1.000376,-0.014360,-0.225359,-0.497366,spin_left
11/12/2017 10:54:25.487974,29.290,41.895,1031.891,88.837982,355.637466,358.086733,-4.854228,6.048740,67.069618,-0.004690,-0.024846,0.937989,0.054057,0.004632,-0.497061,spin_left
11/12/2017 10:54:25.656462,29.290,41.788,1031.897,94.781852,355.917611,356.796137,-4.995387,7.290930,67.001320,0.054065,0.001700,0.993796,-0.014360,0.171398,-0.751486,spin_left
11/12/2017 10:54:25.818778,29.361,41.752,1031.916,97.989480,356.222015,358.655555,-5.413471,9.145596,67.415276,0.054550,-0.039561,0.938233,0.116670,-0.039045,-0.868161,spin_left
11/12/2017 10:54:25.984862,29.130,42.034,1031.908,100.260203,357.323317,0.236550,-7.253105,12.057289,67.392952,0.089705,0.001457,0.840754,-0.136839,-0.116930,-0.815016,spin_left
11/12/2017 10:54:26.151005,29.255,42.074,1031.905,100.336729,357.377083,0.153529,-9.305854,14.508121,67.824966,0.159045,0.061184,0.971132,-0.169825,0.084350,-0.851973,spin_left
11/12/2017 10:54:26.313517,29.379,42.459,1031.906,102.826790,356.419516,1.373478,-11.039498,16.338018,68.412048,0.134073,0.030592,0.926048,0.100788,0.030289,-0.775921,spin_left
11/12/2017 10:54:26.479620,29.343,41.675,1031.913,105.058807,355.575881,2.883018,-12.877977,18.707573,68.477600,0.167045,-0.030877,0.976006,-0.113320,-0.255596,-0.631146,spin_left
11/12/2017 10:54:26.642097,29.272,41.775,1031.925,106.561121,353.980067,2.759637,-14.229488,20.755943,68.030647,0.089463,-0.010373,0.951149,-0.112404,-0.230856,-0.856860,spin_left
11/12/2017 10:54:26.808265,29.290,41.838,1031.928,105.228681,354.306944,1.230760,-16.035267,22.049822,68.064461,0.076128,0.008498,0.993552,-0.119124,0.183005,-1.367849,spin_left
11/12/2017 10:54:26.974208,29.237,42.944,1031.918,100.562644,354.446696,2.186587,-19.260298,23.149382,68.623169,0.072734,-0.070197,0.945787,0.039701,-0.087914,-1.643044,spin_left
11/12/2017 10:54:27.134817,29.201,41.745,1031.906,97.288463,355.891558,1.142850,-23.743080,23.860878,69.210846,0.021820,-0.010614,0.891443,-0.026577,0.308843,-1.377928,spin_left
11/12/2017 10:54:27.297438,29.130,41.496,1031.911,95.676204,356.432986,359.719349,-28.736666,23.015188,69.140007,0.169955,-0.091425,1.018653,-0.138366,-0.037212,-1.044701,spin_left
11/12/2017 10:54:27.463309,29.255,41.403,1031.925,95.916989,355.678479,359.645198,-33.348503,21.652487,70.331017,0.081947,0.001457,0.973082,0.111173,-0.010945,-0.933829,spin_left
11/12/2017 10:54:27.630321,29.290,41.715,1031.924,97.214123,353.459042,0.897597,-36.243225,20.328938,70.860466,0.122678,-0.029430,0.918493,0.031149,-0.323402,-0.770118,spin_left
11/12/2017 10:54:27.792787,29.130,41.473,1031.928,96.981644,351.266019,1.118646,-38.059414,18.622450,70.928215,0.067400,-0.023158,0.970645,-0.257485,-0.053705,-0.884960,spin_left
11/12/2017 10:54:27.958920,29.130,41.702,1031.928,96.097838,351.997934,359.951813,-39.192036,16.089293,72.213036,0.040731,0.024036,0.985023,-0.124621,0.121307,-1.068831,spin_left
11/12/2017 10:54:28.125237,29.077,41.393,1031.917,93.119179,353.185506,1.111828,-40.851463,13.134086,72.201027,0.059157,-0.020022,0.934821,0.063831,0.043422,-1.277747,spin_left
11/12/2017 10:54:28.287881,29.148,41.702,1031.915,90.787380,354.677882,2.050235,-42.409035,9.708924,72.022263,0.024245,0.002671,0.853183,0.075742,0.031205,-1.000414,spin_left
11/12/2017 10:54:28.453863,29.113,42.064,1031.905,87.822497,356.121868,2.045886,-43.653255,6.480219,71.967155,0.174319,0.003885,0.950905,-0.251376,0.191557,-1.076161,spin_left
11/12/2017 10:54:28.616596,29.166,41.991,1031.904,88.579473,355.317772,2.838519,-44.289463,3.015465,71.877464,0.093099,0.077694,0.948224,0.093152,-0.130674,-0.749959,spin_left
11/12/2017 10:54:28.775658,29.184,41.559,1031.902,88.765022,355.025277,3.778389,-44.030197,0.312115,72.186157,0.120496,-0.000724,0.936771,-0.139893,-0.262621,-0.563034,spin_left
11/12/2017 10:54:28.941784,29.130,41.360,1031.901,88.950551,353.923990,2.419706,-42.798962,-1.527005,72.704979,0.047519,-0.007960,0.971132,-0.289555,-0.116930,-0.700479,spin_left
11/12/2017 10:54:29.111474,29.343,41.825,1031.889,88.693299,354.384880,359.833601,-41.293926,-4.232093,73.060890,0.028366,0.019909,1.006712,-0.228774,0.065108,-0.820514,spin_left
11/12/2017 10:54:29.277674,29.166,41.393,1031.893,85.610629,355.249966,359.680255,-39.945358,-7.249562,72.278389,0.068612,-0.030877,0.979905,-0.036351,0.007381,-1.187949,spin_left
11/12/2017 10:54:29.440177,29.237,41.413,1031.894,82.003251,356.623851,0.693398,-38.211216,-10.259727,72.215149,0.051883,0.009226,0.845384,-0.082166,-0.023162,-1.048977,spin_left
11/12/2017 10:54:29.606497,29.130,41.084,1031.904,77.199682,357.670657,359.451034,-35.795464,-12.476587,72.107170,0.161954,-0.058859,1.010367,-0.171047,0.136885,-1.227656,spin_left
11/12/2017 10:54:29.772514,29.343,44.930,1031.905,76.220116,356.380787,0.118980,-32.870575,-14.556864,70.979652,0.074431,0.039818,0.934821,0.106897,-0.024078,-0.804937,spin_left
11/12/2017 10:54:29.942690,29.113,41.413,1031.896,76.394054,354.733756,0.348115,-30.217844,-15.473911,70.696419,0.066430,-0.025811,0.923855,0.246785,-0.220777,-0.550511,spin_left
11/12/2017 10:54:30.109384,29.184,41.606,1031.896,77.221415,353.282525,359.320475,-27.117317,-15.986341,71.342049,0.011395,-0.000482,0.975518,-0.244656,-0.072031,-0.679709,spin_left
11/12/2017 10:54:30.278071,29.113,41.267,1031.892,74.430006,354.743916,359.164725,-24.368839,-16.021635,71.057434,0.021335,0.046131,0.930435,0.069939,0.179340,-1.037371,spin_left
11/12/2017 10:54:30.444156,29.184,41.134,1031.894,69.116515,354.837648,359.954890,-21.826250,-15.537073,70.043198,0.096736,-0.092390,1.036199,-0.313990,0.053196,-1.321729,spin_left
11/12/2017 10:54:30.606804,29.201,41.612,1031.884,65.449086,354.367027,359.674269,-18.814165,-14.293653,70.024261,0.099888,-0.016886,0.880720,-0.075752,0.000662,-1.267056,spin_left
11/12/2017 10:54:30.772718,29.130,41.695,1031.878,61.939536,353.469514,359.016859,-15.599991,-12.845931,69.468346,0.088250,-0.017851,1.044241,-0.145391,-0.154193,-0.786305,spin_left
11/12/2017 10:54:30.936050,29.290,41.632,1031.883,61.680146,353.572520,0.967176,-12.892572,-11.230264,69.081215,0.083159,0.040789,0.915325,0.163707,0.045255,-0.734076,spin_left
11/12/2017 10:54:31.102322,29.201,41.121,1031.888,61.447968,352.686900,3.054817,-10.520016,-8.874515,68.910439,0.060611,0.026222,0.832712,0.087043,-0.132812,-0.737742,spin_left
11/12/2017 10:54:31.268525,29.219,41.257,1031.887,59.199340,353.175386,3.066402,-8.390182,-6.750054,68.323105,0.058914,0.020880,0.922636,-0.180210,0.197666,-1.128695,spin_left
11/12/2017 10:54:31.431141,29.201,41.074,1031.875,55.574401,354.244807,3.613928,-7.045931,-4.340955,67.712219,0.050671,-0.007719,0.922149,-0.005197,-0.033241,-1.260948,spin_left
11/12/2017 10:54:31.598154,29.130,41.363,1031.876,52.264143,354.764999,1.814633,-5.824241,-1.080591,67.800827,0.095524,-0.059824,0.970157,0.035120,0.224544,-1.352578,spin_left
11/12/2017 10:54:31.764298,29.130,40.732,1031.862,51.314135,354.396507,1.508693,-5.478960,2.649220,67.516945,0.170197,-0.070679,0.943838,-0.197620,0.018071,-1.349829,spin_left
11/12/2017 10:54:31.926994,29.113,41.380,1031.862,55.014869,353.528377,0.376320,-5.880502,6.414740,67.469582,0.051641,0.005341,1.025476,-0.087664,-0.129758,-0.742018,spin_left
11/12/2017 10:54:32.085935,29.042,41.307,1031.861,60.613216,353.939183,1.094571,-6.483367,9.297393,67.555611,0.085099,-0.002171,0.973325,0.099566,-0.075697,-0.681237,spin_left
11/12/2017 10:54:32.252132,28.953,41.655,1031.856,66.446341,353.160489,3.381507,-7.023537,11.849403,67.249168,0.118798,0.021851,0.850502,0.088876,-0.017054,-0.757595,spin_left
11/12/2017 10:54:32.418481,29.077,42.047,1031.864,71.590921,351.925682,4.878800,-8.076955,14.692136,67.102707,0.022063,0.042731,0.894367,-0.131646,-0.149611,-0.693454,spin_left
11/12/2017 10:54:32.581417,29.148,41.313,1031.864,74.829176,353.965900,4.676595,-8.986309,16.861942,67.155159,0.024729,0.047345,0.904603,-0.052845,0.148186,-1.073718,spin_left
11/12/2017 10:54:32.747694,29.113,41.722,1031.877,75.625863,354.915156,4.186570,-11.384798,19.461105,67.338623,0.098191,-0.063925,1.003787,-0.249849,0.135357,-1.287826,spin_left
11/12/2017 10:54:32.917468,29.130,41.549,1031.886,76.285317,354.865497,3.302722,-15.041266,21.522621,67.823959,0.156863,0.010440,0.943838,-0.205256,-0.033241,-1.040120,spin_left
11/12/2017 10:54:33.083757,29.255,41.463,1031.903,79.544909,354.299261,3.291830,-18.357813,23.032415,68.410744,0.063278,0.059970,0.976250,-0.012528,-0.113876,-0.721248,spin_left
11/12/2017 10:54:37.595537,29.201,41.812,1031.918,208.331114,357.551571,347.058230,-14.162798,14.751600,67.475243,0.065460,0.014082,0.966745,-0.007335,-0.054011,0.793392,spin_left
11/12/2017 10:54:37.762143,29.255,42.150,1031.916,214.728187,359.847630,350.010001,-8.981308,4.646736,67.171745,0.094069,-0.002412,0.838805,0.135913,0.047698,0.833098,spin_left
11/12/2017 10:54:37.931905,29.237,41.868,1031.923,219.350627,0.962491,350.845772,-7.677759,-0.956777,67.423149,0.154923,-0.031118,1.006224,-0.132868,0.087710,0.770485,spin_left
11/12/2017 10:54:38.098304,29.201,41.858,1031.925,225.129008,0.369109,352.019736,-7.908435,-4.966712,67.564774,0.128981,0.038118,0.954073,0.219601,-0.146557,1.051483,spin_left
11/12/2017 10:54:38.260922,29.290,42.071,1031.927,229.354887,0.906116,354.431233,-9.035175,-7.699260,67.961266,0.144983,-0.004101,0.883888,0.162791,0.041590,1.167242,spin_left
11/12/2017 10:54:38.428306,29.255,41.908,1031.928,233.011361,1.126099,355.972745,-10.374796,-9.853188,68.686462,0.162681,0.031806,0.931653,-0.032075,0.018988,1.009333,spin_left
11/12/2017 10:54:38.594468,29.237,42.037,1031.935,235.991768,359.739746,356.821233,-12.455779,-11.879642,69.476158,0.041216,-0.031118,0.916788,0.061998,-0.138921,1.038654,spin_left
11/12/2017 10:54:38.757162,29.326,41.596,1031.937,235.459109,0.156824,357.673268,-14.621061,-13.367730,69.642494,0.115889,0.022094,0.920687,0.046726,0.216908,0.518808,spin_left
11/12/2017 10:54:38.923873,29.219,42.001,1031.930,232.709070,1.458229,356.849384,-17.375452,-14.581631,70.292709,0.136012,-0.043903,1.020115,0.118503,0.434376,0.385640,spin_left
11/12/2017 10:54:39.090315,29.201,42.243,1031.924,231.103785,2.852503,355.968366,-19.839954,-15.006883,70.751465,0.208261,-0.029912,0.982098,-0.087969,-0.003004,0.357845,spin_left
11/12/2017 10:54:39.253009,29.184,41.895,1031.916,226.482274,1.689365,355.254782,-21.808390,-15.347843,70.884293,0.169470,0.047102,0.960897,0.229972,-0.080578,-0.017531,spin_left
11/12/2017 10:54:39.419218,29.166,42.064,1031.913,220.560623,0.127455,355.849540,-22.130323,-15.336690,70.763489,0.113465,-0.019298,0.966502,0.141389,-0.108057,-0.031269,spin_left
11/12/2017 10:54:39.585460,29.272,42.054,1031.909,214.371146,358.518458,0.434541,-22.134819,-15.130764,70.796173,0.098433,0.144462,0.811998,0.282805,-0.035364,-0.223387,spin_left
11/12/2017 10:54:39.753265,29.272,41.971,1031.902,208.500407,357.545683,0.311809,-21.819818,-14.146393,71.627975,0.110555,0.087891,0.967476,-0.140791,-0.076580,0.085387,walking
11/12/2017 10:54:39.916228,29.255,41.645,1031.911,203.517060,357.368546,0.285719,-21.514639,-14.102782,71.668221,0.107161,0.058999,0.914594,-0.055576,0.113392,-0.032201,walking
11/12/2017 10:54:40.082520,29.290,41.549,1031.920,199.080552,357.429433,0.278376,-21.504404,-14.224135,71.321907,0.097463,0.078179,0.926535,0.001233,-0.039021,-0.014180,walking
11/12/2017 10:54:40.248873,29.255,41.851,1031.920,194.700406,356.930531,0.684101,-21.515911,-14.050881,71.521141,0.095281,0.066525,0.953342,0.035741,0.030921,-0.034940,walking
11/12/2017 10:54:40.418670,29.219,41.323,1031.923,190.545589,356.901700,1.045123,-21.584608,-14.132508,71.751205,0.087523,0.067254,0.926292,0.009469,0.022055,-0.046226,walking
11/12/2017 10:54:40.585065,29.219,42.482,1031.926,186.732062,356.654962,1.539671,-21.823891,-14.145289,72.147385,0.094311,0.113384,0.963577,0.082156,0.182406,-0.018733,walking
11/12/2017 10:54:40.747928,29.308,41.632,1031.920,183.753252,356.171651,1.972797,-22.096451,-14.178850,72.187202,0.040731,0.054871,0.946031,0.084892,-0.208505,-0.005908,walking
11/12/2017 10:54:40.914015,29.237,42.001,1031.926,180.357118,356.896000,2.031519,-22.183245,-13.891183,72.367828,0.089220,0.053414,0.959678,-0.056519,0.071876,-0.056300,walking
11/12/2017 10:54:41.080347,29.237,41.111,1031.925,177.443602,357.053244,1.839327,-22.358999,-14.018298,71.259666,0.058187,0.073323,0.953586,-0.030546,-0.009065,-0.021778,walking
11/12/2017 10:54:41.243138,29.095,41.044,1031.916,174.667840,357.103693,2.012172,-21.938225,-13.891855,70.961372,0.040731,0.045888,0.933603,0.075425,0.022694,-0.040704,walking
11/12/2017 10:54:41.409474,29.201,41.924,1031.917,172.200940,357.182896,2.141377,-22.008509,-13.564411,71.402016,0.065218,0.065554,0.959435,0.008234,0.033070,-0.008019,walking
11/12/2017 10:54:41.579187,29.326,41.609,1031.908,169.943958,357.204446,2.928780,-22.069740,-12.855093,71.525620,0.039519,0.067254,0.904603,0.103495,-0.017328,-0.064813,walking
11/12/2017 10:54:41.745341,29.290,41.582,1031.910,167.686963,357.414957,2.884022,-21.781912,-13.073864,71.317261,0.053338,0.074052,0.951880,-0.043094,0.010155,-0.031817,walking
11/12/2017 10:54:41.908023,29.326,41.320,1031.910,165.739253,357.227252,3.005441,-21.670481,-13.128675,71.163483,0.058429,0.079393,0.931409,0.012489,-0.010302,-0.011960,walking
11/12/2017 10:54:42.077129,29.255,41.941,1031.916,164.155892,357.263142,2.991981,-21.659586,-13.119590,71.587692,0.058429,0.075994,0.951880,0.059522,-0.090325,0.023766,walking
11/12/2017 10:54:42.243333,29.326,41.347,1031.921,162.846449,357.861276,2.672156,-21.900858,-12.984858,71.056252,0.047762,0.067496,0.951636,0.000274,0.070623,0.022235,walking
11/12/2017 10:54:42.409729,29.255,41.350,1031.920,161.872997,358.111902,2.398947,-21.908382,-13.063018,70.901131,0.052611,0.075023,0.950905,-0.007351,-0.030167,0.018558,walking
11/12/2017 10:54:42.576227,29.272,42.429,1031.927,160.722438,357.663568,2.395642,-21.971283,-13.182014,71.424721,0.056247,0.075994,0.950905,0.014943,-0.007862,0.022215,walking
11/12/2017 10:54:42.738954,29.361,42.379,1031.939,159.547208,357.357371,2.430571,-22.269062,-13.294425,71.247231,0.071522,0.002428,0.963334,0.008839,-0.019159,0.018853,walking
11/12/2017 10:54:42.905269,29.326,41.131,1031.939,158.527939,358.141993,2.173864,-22.194630,-13.307454,71.802376,0.044610,0.059727,0.986241,-0.038806,0.073381,-0.037038,walking
11/12/2017 10:54:43.071668,29.219,41.386,1031.946,157.114309,358.527497,1.650388,-22.083868,-13.275913,71.988632,0.061339,0.062883,0.984779,-0.062297,0.036409,0.037796,walking
11/12/2017 10:54:56.315527,29.414,41.772,1031.927,321.396990,355.289424,1.703921,-28.884977,-10.120493,71.691353,0.024245,-0.034013,0.929703,-0.106585,0.044350,1.558545,spin_right
11/12/2017 10:54:56.488431,29.521,42.526,1031.928,322.415569,355.679715,0.633157,-37.180298,-4.700481,71.933685,0.017699,0.022337,0.956754,0.064763,0.051681,1.147127,spin_right
11/12/2017 10:54:56.657559,29.450,42.031,1031.934,321.933979,354.767889,1.056498,-41.139496,-0.754592,71.858376,0.000242,0.043703,0.904603,0.155171,-0.091567,1.123609,spin_right
11/12/2017 10:54:56.827495,29.485,42.110,1031.934,319.751082,357.400450,2.987481,-42.548813,3.263081,71.417503,0.074188,0.062155,0.846603,0.214730,0.278312,0.927827,spin_right
11/12/2017 10:54:57.000314,29.485,41.971,1031.933,319.192048,358.509723,4.167652,-43.483330,7.119913,70.758255,0.074188,0.032534,0.845141,0.011618,0.096579,1.075656,spin_right
11/12/2017 10:54:57.168503,29.521,42.449,1031.941,320.117470,357.026350,4.040214,-43.471172,10.646801,69.848701,0.133345,0.031806,0.921174,0.068428,-0.105923,1.306258,spin_right
11/12/2017 10:54:57.337635,29.521,42.180,1031.930,323.187811,356.599429,3.558997,-41.914936,14.301888,70.502121,0.077583,-0.041973,0.977712,0.134401,0.128650,1.494710,spin_right
11/12/2017 10:54:57.506893,29.450,42.605,1031.919,329.383353,354.961945,4.429873,-39.022881,17.877134,70.569099,0.006788,-0.023640,0.867561,0.181438,-0.241535,1.645593,spin_right
11/12/2017 10:54:57.679623,29.503,42.486,1031.928,331.580052,355.392112,5.218252,-34.819195,20.649694,70.100883,0.063763,-0.008443,0.915082,0.091335,0.233107,0.946458,spin_right
11/12/2017 10:54:57.855865,29.361,42.094,1031.928,331.802274,355.496362,6.087690,-30.517017,22.912554,68.912292,0.032973,0.042974,0.927998,0.202208,0.002811,0.930576,spin_right
11/12/2017 10:54:58.035672,29.521,42.336,1031.921,330.262244,357.819323,7.818694,-27.733467,24.270987,68.056641,0.056005,0.077694,0.814191,0.141732,0.117654,0.703334,spin_right
11/12/2017 10:54:58.211915,29.485,42.625,1031.926,327.770041,357.394846,8.197298,-25.158131,24.748217,67.764130,0.120253,0.099788,0.891199,0.074231,-0.041476,0.663322,spin_right
11/12/2017 10:54:58.382689,29.521,42.027,1031.920,324.986073,355.659326,7.922997,-22.640121,24.981802,67.475433,0.120253,0.080850,0.923124,0.071177,-0.100730,0.785495,spin_right
11/12/2017 10:54:58.555858,29.468,42.200,1031.929,324.203901,354.446196,7.271636,-19.873968,24.598627,67.118423,0.089705,0.010440,0.947493,0.042772,0.079475,0.904614,spin_right
11/12/2017 10:54:58.725012,29.432,42.688,1031.936,327.229579,353.530740,5.919834,-17.103512,23.253941,66.908264,0.047035,0.006555,0.908502,0.106302,0.106353,1.166981,spin_right
11/12/2017 10:54:58.897664,29.521,42.276,1031.928,331.491670,353.905968,4.827344,-14.641447,21.787212,66.618431,0.029094,-0.078398,0.999157,0.037885,0.050459,1.048778,spin_right
11/12/2017 10:54:59.077491,29.556,43.193,1031.923,332.812854,353.851614,5.374500,-11.616521,19.089773,66.576385,0.053338,0.066768,0.931409,0.295670,-0.032313,0.758312,spin_right
11/12/2017 10:54:59.253727,29.610,42.150,1031.923,329.565965,354.221822,5.338591,-9.372733,17.590031,66.282845,0.056732,-0.019298,1.059838,-0.283430,0.274341,0.417449,spin_right
11/12/2017 10:54:59.422878,29.539,43.074,1031.919,327.637990,353.848891,3.945905,-8.074642,15.545949,66.015984,0.119041,0.006798,0.963577,0.061098,-0.027121,0.589713,spin_right
11/12/2017 10:54:59.595488,29.503,42.147,1031.919,326.595918,353.701999,1.935225,-7.807637,13.749128,66.171021,0.121708,0.041032,0.997695,0.016810,-0.182586,0.884150,spin_right
11/12/2017 10:54:59.771703,29.468,42.187,1031.925,325.322525,353.578771,1.574649,-7.043873,11.484379,66.041519,0.097463,0.013596,0.997939,0.006425,0.169578,0.827339,spin_right
11/12/2017 10:54:59.948065,29.539,41.901,1031.923,327.510668,353.476210,358.791304,-6.521687,8.822393,66.203110,0.029578,-0.007237,0.893149,0.135929,0.045266,1.159956,spin_right
11/12/2017 10:55:00.124377,29.539,42.057,1031.925,331.341090,355.288100,357.299766,-6.425444,5.052884,66.298164,-0.036285,-0.096008,1.019384,0.005509,0.037936,1.097342,spin_right
11/12/2017 10:55:00.300642,29.556,41.440,1031.933,332.876135,356.861005,357.912828,-6.815270,1.073474,66.655312,0.003152,0.033263,0.894367,0.196099,-0.100119,0.930576,spin_right
11/12/2017 10:55:00.480647,29.450,42.117,1031.925,327.328507,356.509927,359.826480,-7.482670,-1.765775,67.227966,0.027881,0.033748,0.921661,-0.033281,0.036409,0.553977,spin_right
11/12/2017 10:55:00.656921,29.414,42.509,1031.943,321.501734,355.562768,0.890905,-8.829183,-3.728904,68.203125,0.034912,0.040061,0.914594,0.017421,-0.476412,0.787022,spin_right
11/12/2017 10:55:00.825910,29.503,41.994,1031.943,313.163853,354.991593,0.649021,-9.662912,-5.023612,68.242630,0.092857,0.067739,0.888762,0.004593,0.109102,0.432110,spin_right
11/12/2017 10:55:00.998696,29.521,42.001,1031.939,306.815277,354.803664,0.641080,-10.237059,-6.673849,68.834534,0.071037,0.098817,0.945056,0.140510,0.020526,0.749454,spin_right
11/12/2017 10:55:01.170079,29.485,42.356,1031.961,303.530639,353.388771,358.590702,-11.551867,-8.127787,69.345009,0.071279,-0.088047,1.000863,-0.042444,-0.086070,1.017318,spin_right
11/12/2017 10:55:01.342658,29.592,42.193,1031.961,300.890648,355.868648,355.602282,-13.401789,-10.010659,69.363350,-0.046899,-0.086841,1.093224,-0.082761,0.222417,0.855134,spin_right
11/12/2017 10:55:01.518952,29.468,41.609,1031.959,297.540987,356.986154,355.635187,-15.868993,-11.648052,69.892113,0.007031,0.016753,0.979905,0.175940,-0.141658,0.844749,spin_right
11/12/2017 10:55:01.695830,29.521,41.732,1031.959,291.744724,356.379568,357.246889,-17.944958,-12.523507,69.709641,0.015759,0.031563,0.901922,-0.056799,0.033355,0.526488,spin_right
11/12/2017 10:55:01.872339,29.556,41.934,1031.954,284.890643,357.948433,357.690667,-20.400925,-12.827334,70.208092,0.120496,0.057785,0.899972,0.026278,0.015639,0.517936,spin_right
11/12/2017 10:55:02.048708,29.539,41.918,1031.956,280.474175,356.848044,356.183546,-22.137625,-13.334929,70.585075,0.122435,0.077451,0.980636,-0.040306,-0.083626,0.640415,spin_right
11/12/2017 10:55:02.224817,29.539,42.286,1031.957,276.968423,355.356114,355.916910,-23.784269,-13.891799,70.819084,0.112010,0.038361,0.994527,0.005814,-0.022845,0.718300,spin_right
11/12/2017 10:55:02.401187,29.485,41.785,1031.949,277.096113,355.659340,354.237880,-25.706228,-13.959798,70.926819,0.056490,-0.067543,1.006468,0.212592,0.100855,1.071075,spin_right
11/12/2017 10:55:02.577494,29.574,41.735,1031.928,279.863412,358.232817,353.632974,-29.052191,-13.622485,70.878815,-0.040975,-0.097214,0.936771,0.080645,-0.039033,1.160872,spin_right
11/12/2017 10:55:02.757195,29.485,41.702,1031.923,280.188078,0.041419,354.491121,-32.539047,-12.404716,71.425003,0.049944,0.023794,0.930191,0.132263,0.017472,0.889953,spin_right
11/12/2017 10:55:02.926381,29.450,41.689,1031.927,277.233769,0.222882,355.430788,-35.100983,-10.542941,71.507477,0.023760,0.047102,0.940913,0.035441,0.074893,0.598876,spin_right
11/12/2017 10:55:03.099246,29.592,41.785,1031.919,274.717227,1.719144,357.732089,-37.620937,-9.044294,71.818672,0.007273,0.052200,0.866586,0.124322,-0.204272,0.800461,spin_right
11/12/2017 10:55:03.275473,29.521,41.928,1031.925,271.767049,0.964527,359.407015,-39.461353,-6.925912,71.880142,0.137952,0.090076,0.875115,-0.015871,0.137507,0.499916,spin_right
11/12/2017 10:55:03.452005,29.485,42.217,1031.925,270.470427,0.033809,358.735481,-41.125778,-5.043187,71.702652,0.093827,0.107072,0.962115,0.057432,-0.059802,0.838335,spin_right
11/12/2017 10:55:03.628338,29.610,41.689,1031.907,271.164326,359.909094,359.787982,-41.851112,-2.942827,71.446709,0.112495,-0.033530,1.058863,-0.172253,-0.067438,1.003269,spin_right
11/12/2017 10:55:03.804582,29.574,41.818,1031.910,273.392115,0.495482,359.400362,-42.860291,0.051143,71.484543,0.018183,0.017238,0.986972,-0.019537,-0.023150,1.023427,spin_right
11/12/2017 10:55:03.980741,29.539,41.612,1031.910,274.971542,359.942207,358.943731,-43.323669,2.911942,71.993729,0.068370,0.029621,0.995502,0.101109,0.051375,0.636444,spin_right
11/12/2017 10:55:04.157024,29.556,41.831,1031.918,272.834908,359.294124,0.197129,-42.927467,5.634546,72.038475,0.087281,0.058270,0.950418,0.141121,-0.021318,0.355446,spin_right
11/12/2017 10:55:04.333317,29.539,41.705,1031.927,269.224655,0.799489,2.686500,-43.288319,7.995889,71.832710,0.051641,0.084735,0.816628,0.132569,-0.029565,0.466013,spin_right
11/12/2017 10:55:04.513023,29.574,41.426,1031.930,266.214420,0.635664,3.776441,-43.138287,10.017913,71.608101,0.142073,0.079150,0.891687,-0.108112,0.124984,0.360028,spin_right
11/12/2017 10:55:04.687934,29.556,41.728,1031.925,265.430184,358.559622,3.163644,-42.727310,11.609695,71.341209,0.144255,0.107557,0.945544,-0.006708,-0.095843,0.623005,spin_right
11/12/2017 10:55:04.857055,29.521,41.675,1031.934,266.014527,358.080911,3.577590,-42.276993,13.105725,71.574654,0.120738,0.000486,0.973569,-0.167977,0.031827,0.859715,spin_right
11/12/2017 10:55:05.026214,29.592,41.845,1031.935,267.985454,358.789330,2.945897,-41.503468,14.885763,72.093826,0.015517,0.002914,0.937014,-0.057716,0.106353,0.860632,spin_right
11/12/2017 10:55:05.198752,29.521,41.812,1031.942,269.976345,358.986077,1.875604,-40.446491,16.422239,72.065231,0.056490,0.026707,0.985754,0.070566,0.049543,0.652021,spin_right
11/12/2017 10:55:05.374970,29.539,41.758,1031.945,270.090559,357.954551,2.877305,-38.807011,18.273798,72.204071,0.047035,0.065554,0.940426,0.146008,0.020832,0.421114,spin_right
11/12/2017 10:55:05.547589,29.432,41.944,1031.953,268.700615,0.191427,4.452304,-37.975632,19.860571,71.183311,0.059157,0.033505,0.869267,0.310025,0.170188,0.452268,spin_right
11/12/2017 10:55:05.721010,29.574,42.924,1031.939,267.710573,0.221778,5.912469,-37.056694,21.452913,70.395569,0.157590,0.076480,0.867561,-0.013122,0.069396,0.464485,spin_right
11/12/2017 10:55:05.890395,29.521,41.665,1031.934,267.707240,358.274257,5.564198,-35.249802,22.552443,69.806755,0.116616,0.102458,0.928241,0.010701,-0.074158,0.610788,spin_right
11/12/2017 10:55:06.059637,29.592,42.024,1031.940,270.035064,357.613325,6.050847,-33.215775,23.531656,69.346848,0.078068,0.029621,0.928485,-0.043971,-0.010933,0.971198,spin_right
11/12/2017 10:55:06.232554,29.574,41.885,1031.942,273.496747,358.172000,6.125291,-30.599440,24.368956,69.215195,0.039519,0.024279,0.929947,-0.045498,0.234329,0.869795,spin_right
11/12/2017 10:55:06.408978,29.627,42.024,1031.944,278.165277,357.492864,4.938059,-27.913500,24.291899,69.424759,0.083886,0.005099,1.028157,0.042466,0.025719,0.816955,spin_right
11/12/2017 10:55:06.585342,29.503,42.034,1031.931,279.832594,356.291771,5.707145,-25.219837,24.717510,68.949287,0.077825,0.052686,0.911426,0.117297,-0.100119,0.540844,spin_right
11/12/2017 10:55:06.761738,29.681,41.533,1031.914,278.047675,357.916515,4.210310,-22.956585,25.106508,68.362122,0.092857,0.015539,0.881939,0.379664,0.326570,0.217085,spin_right
11/12/2017 10:55:06.938082,29.503,42.379,1031.904,277.344158,356.702548,3.549643,-21.592123,25.154139,68.349403,0.168015,0.079636,0.873897,0.053767,-0.040866,0.421419,spin_right
11/12/2017 10:55:07.114343,29.574,43.940,1031.911,277.892896,355.863839,3.918205,-20.140314,24.650831,68.139450,0.069340,0.102944,0.949930,0.190601,0.004033,0.673096,spin_right
11/12/2017 10:55:07.291287,29.627,41.888,1031.913,282.084508,354.957841,5.465056,-18.036381,24.447220,67.553230,0.102070,-0.052587,1.056182,-0.325886,-0.233288,1.208519,spin_right
11/12/2017 10:55:07.467672,29.574,41.685,1031.907,286.750668,355.995699,1.191944,-15.370722,23.225399,66.880127,-0.005430,-0.054276,1.108090,-0.220206,0.383686,0.799240,spin_right
11/12/2017 10:55:07.644166,29.539,41.881,1031.911,292.250302,356.988623,359.906701,-12.940904,20.937935,66.841232,-0.006911,0.009712,0.974056,0.157309,-0.121805,0.953789,spin_right
11/12/2017 10:55:07.820758,29.574,41.798,1031.922,296.739662,357.663347,0.936882,-10.649332,18.731192,66.761810,0.029336,-0.062719,0.995502,-0.044582,0.242881,0.909501,spin_right
11/12/2017 10:55:07.997758,29.574,40.882,1031.920,303.180916,358.329986,359.424369,-9.013945,16.526728,66.636208,0.113950,-0.025570,1.009392,0.063236,-0.238175,1.009377,spin_right
11/12/2017 10:55:08.174165,29.503,41.931,1031.931,305.332467,358.139036,358.797935,-7.527871,13.959965,66.902283,0.133345,0.031806,0.942619,0.066901,0.037631,0.947374,spin_right
11/12/2017 10:55:08.350573,29.556,42.280,1031.931,308.450633,357.575620,359.498970,-6.372080,11.052208,67.438309,0.071037,0.030349,0.914351,0.200069,0.014418,1.134910,spin_right
11/12/2017 10:55:08.526887,29.485,42.021,1031.926,315.472726,357.075082,358.315378,-5.454111,6.858381,67.134125,0.061581,-0.084670,0.999644,-0.032365,-0.075379,1.584201,spin_right
11/12/2017 10:55:08.703227,29.556,41.991,1031.933,323.327229,357.545597,357.337165,-5.123020,2.754186,66.965691,0.006061,-0.080087,0.958947,-0.019842,-0.116918,1.452865,spin_right
11/12/2017 10:55:08.879573,29.645,41.220,1031.933,326.005442,358.537699,358.386053,-5.970705,-1.432866,66.715630,0.116132,0.032777,0.961628,0.225726,0.098106,0.946153,spin_right
11/12/2017 10:55:09.056137,29.574,42.100,1031.928,321.204198,359.390586,0.388826,-7.049674,-4.848328,67.265182,0.088008,-0.005307,0.946519,0.134096,0.381242,0.675234,spin_right
11/12/2017 10:55:09.232601,29.610,41.798,1031.931,317.513215,0.909945,0.572168,-9.499788,-6.764832,68.114799,0.129466,0.041760,0.981367,-0.076652,0.009531,1.144073,spin_right
11/12/2017 10:55:09.408923,29.503,41.835,1031.929,316.892340,0.513570,0.785904,-12.328288,-8.937520,69.099258,0.141346,0.059970,0.918250,0.257185,0.029079,1.404912,spin_right
11/12/2017 10:55:09.585349,29.610,41.576,1031.928,318.086869,0.817956,0.762537,-15.723521,-10.345198,70.551575,0.130193,-0.081534,1.052283,-0.158508,0.020221,1.598862,spin_right
11/12/2017 10:55:09.761665,29.503,41.669,1031.933,320.130588,2.351153,359.847832,-19.667124,-11.548521,70.886505,-0.007899,-0.056447,1.025476,0.000622,0.078864,1.314810,spin_right
11/12/2017 10:55:09.937977,29.610,42.041,1031.933,318.327745,3.564646,0.155947,-24.304443,-12.546786,70.841591,0.039519,0.027678,0.955779,0.103858,0.028468,1.060690,spin_right
11/12/2017 10:55:10.114371,29.556,42.396,1031.930,315.098640,3.144369,1.458821,-28.205076,-12.197607,71.142204,0.063036,0.015296,0.945300,-0.024729,0.077031,0.880485,spin_right
11/12/2017 10:55:10.290711,29.556,41.616,1031.937,311.787187,4.279889,2.544625,-31.837194,-10.996118,71.506401,0.092614,0.051229,0.904359,0.008563,0.031522,0.927216,spin_right
11/12/2017 10:55:10.467078,29.592,41.652,1031.928,309.888999,3.167908,1.622646,-35.225956,-9.455614,72.126289,0.139891,0.066040,0.967964,0.015894,-0.057359,1.136437,spin_right
11/12/2017 10:55:10.643698,29.503,41.802,1031.921,310.591299,2.014254,2.857329,-37.679966,-7.355776,72.063217,0.089220,0.007284,0.879258,0.204346,0.069090,1.464166,spin_right
11/12/2017 10:55:10.820986,29.503,41.924,1031.926,314.319326,0.362612,3.715455,-39.612370,-4.313166,72.147156,0.091402,0.002914,0.831006,-0.051912,0.047404,1.527696,spin_right
11/12/2017 10:55:10.990339,29.485,41.556,1031.920,315.362310,0.789329,2.933638,-41.071018,-1.375575,71.842804,0.111768,-0.000724,1.032056,0.044299,0.198288,0.987997,spin_right
11/12/2017 10:55:11.159632,29.539,41.905,1031.927,314.410950,359.840416,4.642704,-42.165443,2.165386,71.824059,0.040973,0.004370,0.908014,0.252604,-0.171285,0.987081,spin_right
11/12/2017 10:55:11.332432,29.539,41.426,1031.930,311.604439,1.604288,5.373214,-42.376060,6.005084,71.761482,0.122193,-0.032565,0.891443,0.227253,0.366887,0.744262,spin_right
11/12/2017 10:55:11.508861,29.610,41.632,1031.916,310.620765,1.926396,5.085403,-42.305374,9.803753,70.845467,0.178440,0.014325,0.953829,-0.103836,0.021748,0.903698,spin_right
11/12/2017 10:55:11.685112,29.574,41.685,1031.914,312.563196,0.401556,5.458620,-41.489761,12.804776,70.820572,0.146195,0.044917,0.949443,0.173802,0.069701,1.196302,spin_right
11/12/2017 10:55:18.801881,29.592,42.313,1031.944,8.236383,339.890282,341.051296,-29.812847,5.507359,69.425644,0.068127,0.133536,0.875359,0.086138,-0.148662,0.161774,walking
11/12/2017 10:55:18.973376,29.592,41.841,1031.936,22.719168,344.737276,340.367586,-17.725595,-2.919919,68.264809,0.044852,0.056085,1.041560,0.228775,0.034292,0.393597,walking
11/12/2017 10:55:19.139916,29.592,41.782,1031.928,35.021662,349.400036,340.699513,-13.186602,-6.482530,68.183693,0.026669,0.048801,0.922636,0.182350,0.179678,0.259207,walking
11/12/2017 10:55:19.302903,29.645,41.752,1031.924,44.949014,350.147089,342.673034,-11.394862,-8.035588,67.653221,0.073219,0.121153,0.715738,0.218696,-0.026795,-0.085626,walking
11/12/2017 10:55:19.469374,29.539,41.715,1031.922,50.308424,351.668494,345.448781,-10.746002,-8.841240,67.009102,-0.000494,0.092990,0.829544,-0.182642,0.016882,-0.043171,walking
11/12/2017 10:55:19.636094,29.485,41.735,1031.923,54.128167,353.114412,347.662611,-10.241921,-8.801777,66.229599,0.112252,0.081093,1.013535,0.189069,-0.115981,-0.368457,walking
11/12/2017 10:55:19.803298,29.432,41.459,1031.916,57.084197,351.324009,352.614988,-9.285618,-8.437378,66.160133,0.100130,0.066282,0.888762,-0.036035,-0.080551,-0.425878,walking
11/12/2017 10:55:19.966217,29.414,41.469,1031.909,61.802004,351.224141,355.676582,-8.664396,-8.088623,66.536751,0.040973,0.131108,0.666023,0.120652,0.222438,0.003560,walking
11/12/2017 10:55:20.139779,29.379,41.682,1031.904,66.673370,354.395057,357.721826,-8.689217,-7.428864,67.044556,0.045337,0.064340,1.012317,-0.004575,0.410890,0.236605,walking
11/12/2017 10:55:20.302941,29.450,41.446,1031.908,75.903926,354.960252,354.466947,-9.296579,-7.532721,67.037971,0.053096,-0.042456,1.144157,0.361944,0.014439,-0.004076,walking
11/12/2017 10:55:20.469447,29.397,41.582,1031.908,83.101662,352.248114,354.922372,-9.895817,-8.639102,67.004013,0.043398,-0.004825,0.753998,0.196399,-0.331922,0.042350,walking
11/12/2017 10:55:20.635777,29.379,41.542,1031.914,86.817264,350.336056,356.166013,-9.314392,-8.990702,66.608658,0.032488,0.124795,0.758872,-0.076050,0.024541,-0.070949,walking
11/12/2017 10:55:20.802198,29.485,41.141,1031.918,87.548306,351.451331,357.900600,-8.713149,-9.077356,66.543930,0.140861,0.095175,0.992090,0.099573,0.175425,-0.246267,walking
11/12/2017 10:55:20.965227,29.432,41.762,1031.927,88.151043,351.371781,2.417214,-8.165722,-9.210284,66.245209,0.209958,-0.016886,0.954804,-0.180814,0.150990,-0.303383,walking
11/12/2017 10:55:21.131857,29.468,41.705,1031.935,91.230229,352.246299,4.764095,-7.448215,-8.867310,65.760437,0.010425,0.122853,0.630200,0.142029,0.165956,-0.069421,walking
11/12/2017 10:55:21.298508,29.343,41.629,1031.943,93.871272,354.216264,5.702041,-7.343788,-7.879795,66.054825,0.077825,0.023551,1.052283,0.176848,0.254226,0.299541,walking
11/12/2017 10:55:21.462232,29.379,41.297,1031.940,101.774415,352.370732,2.849635,-7.925924,-7.290457,65.816208,0.026184,0.002671,1.112720,0.296578,0.042867,0.232651,walking
11/12/2017 10:55:21.628902,29.414,40.566,1031.943,105.162920,351.530127,3.454697,-8.140410,-7.958728,65.102951,0.066430,0.067496,0.674065,0.063222,-0.120529,-0.069721,walking
11/12/2017 10:55:21.795372,29.379,41.426,1031.937,107.767148,349.681778,2.609286,-7.553315,-8.016647,64.519455,0.030548,0.074537,0.906552,-0.134062,-0.115010,0.099775,walking
11/12/2017 10:55:21.961909,29.343,41.702,1031.938,108.005870,351.050705,1.488134,-6.622079,-7.711719,63.798534,0.182804,-0.062236,1.249921,-0.401010,0.332144,-0.073710,walking
11/12/2017 10:55:22.132013,29.361,40.955,1031.932,110.131500,352.640989,2.863649,-6.522171,-7.123454,63.529900,0.200745,-0.018333,0.894855,0.187253,0.264643,-0.284459,walking
11/12/2017 10:55:22.298725,29.485,40.865,1031.930,113.035437,354.151297,3.667698,-7.183623,-6.004661,64.272659,0.037579,0.110713,0.751561,-0.071448,0.001971,0.187129,walking
11/12/2017 10:55:22.461808,29.432,41.290,1031.933,116.674302,356.173269,4.156629,-8.116252,-5.497252,64.388527,0.064976,0.000486,1.003056,0.200998,0.210276,0.457742,walking
11/12/2017 10:55:22.628641,29.361,41.440,1031.931,122.619463,355.437503,4.618585,-8.969131,-5.616888,64.034966,0.044125,-0.001447,0.951392,0.121585,-0.024907,0.295252,walking
11/12/2017 10:55:22.795424,29.432,41.366,1031.931,125.993645,354.900429,5.315112,-9.624418,-6.067188,63.466663,0.052368,0.037633,0.695998,0.099891,-0.143403,0.040213,walking
11/12/2017 10:55:28.304943,29.450,42.831,1031.920,150.821737,347.146293,310.001260,-9.745315,-6.139330,63.516415,0.128254,0.066282,0.976250,-0.150522,-0.116804,0.013631,go_up
11/12/2017 10:55:28.474122,29.574,40.855,1031.913,150.865683,347.188160,313.652119,-9.212172,-6.346931,63.950272,0.096736,0.113141,0.909720,0.116100,-0.036771,-0.125321,go_up
11/12/2017 10:55:28.644426,29.432,41.147,1031.915,151.783114,348.800517,318.809308,-9.955737,-6.174304,64.804207,0.019153,-0.008443,1.207762,0.008588,-0.092665,0.412851,go_up
11/12/2017 10:55:28.811199,29.432,40.759,1031.912,156.222860,352.546314,320.848389,-10.353045,-6.286066,64.896759,-0.003949,-0.121337,0.968695,0.071201,0.177948,0.595500,go_up
11/12/2017 10:55:28.977733,29.468,40.689,1031.913,162.850643,356.370809,323.572040,-11.347823,-6.691242,64.671692,0.050429,-0.040767,0.853670,0.105104,-0.012336,0.345045,go_up
11/12/2017 10:55:29.140635,29.414,41.058,1031.905,162.974324,358.870666,326.715307,-13.036467,-6.282359,64.987198,0.024002,0.043945,0.967964,0.215365,-0.072201,-0.008341,go_up
11/12/2017 10:55:29.307202,29.468,40.828,1031.910,159.923743,358.271371,328.860109,-14.821696,-5.758725,65.238686,0.128496,-0.091425,1.141476,-0.548216,0.075628,-0.342178,go_up
11/12/2017 10:55:29.475023,29.397,40.729,1031.903,156.088360,356.646054,330.265772,-16.010185,-5.655637,64.287956,0.059884,-0.014715,0.821502,0.086473,-0.011115,-0.689761,go_up
11/12/2017 10:55:29.641732,29.343,41.699,1031.897,154.204170,355.672032,334.855610,-16.804678,-5.506394,64.120255,0.029821,0.087891,0.708914,0.249268,-0.054792,-0.045603,go_up
11/12/2017 10:55:29.804524,29.397,40.759,1031.886,153.105739,355.497014,338.020707,-17.361235,-5.073870,62.918846,0.069824,0.040789,1.199232,0.305163,0.130301,0.004793,go_up
11/12/2017 10:55:29.971221,29.397,39.985,1031.888,154.760667,357.091602,337.282243,-17.356871,-5.453599,62.737247,-0.044677,0.055114,0.784948,0.156722,0.220709,0.345350,go_up
11/12/2017 10:55:30.137919,29.414,40.818,1031.874,156.710972,359.145376,341.890807,-17.995680,-6.501504,62.068382,-0.052329,0.024036,0.670654,0.156417,-0.172078,0.452252,go_up
11/12/2017 10:55:30.313256,29.361,40.536,1031.860,157.550143,0.290115,343.622327,-18.480436,-7.212010,61.274189,0.039761,0.110713,0.868048,-0.057686,-0.014170,0.157192,go_up
11/12/2017 10:55:30.476219,29.397,40.622,1031.857,157.177543,357.375568,344.432703,-18.207531,-8.070083,60.902081,0.145468,-0.059583,1.127342,-0.539658,-0.063345,-0.212076,go_up
11/12/2017 10:55:30.642688,29.432,41.443,1031.840,154.557906,355.430829,344.927021,-17.246473,-8.823727,60.201195,0.147892,-0.016886,0.942132,0.221480,-0.083503,-0.552938,go_up
11/12/2017 10:55:30.809183,29.290,40.599,1031.832,152.434195,355.675146,348.118644,-16.087217,-8.071953,59.383568,0.010910,0.068468,0.738158,0.264240,-0.148560,-0.077991,go_up
11/12/2017 10:55:30.972094,29.290,40.546,1031.827,150.487304,355.448747,350.871670,-15.138644,-6.908695,59.256611,0.111525,0.162671,0.952124,-0.178946,0.006907,-0.051408,go_up
11/12/2017 10:55:31.145669,29.379,40.818,1031.821,150.345974,355.466980,347.747836,-14.590508,-6.369067,59.489132,0.070794,-0.103245,1.283551,-0.676801,-0.036464,-0.121046,go_up
11/12/2017 10:55:31.315786,29.361,40.224,1031.817,152.271404,355.903321,346.010756,-14.315459,-7.203999,58.947346,-0.042703,-0.053793,0.916788,0.431309,-0.040435,0.036251,go_up
11/12/2017 10:55:31.482526,29.290,38.517,1031.805,153.290359,355.642490,348.324872,-14.568127,-7.692275,59.165791,0.035397,0.118968,0.632150,0.075775,0.149245,0.122378,go_up
11/12/2017 10:55:31.649382,29.326,41.024,1031.794,154.136619,355.056835,350.332783,-14.836542,-7.810132,59.417191,0.052368,0.109014,1.020359,-0.067473,-0.061504,0.152616,go_up
11/12/2017 10:55:31.812407,29.343,40.699,1031.784,153.650296,355.034701,345.105514,-14.716328,-8.705494,59.317909,0.167530,-0.126402,1.206299,-0.595261,0.115036,-0.240782,go_up
11/12/2017 10:55:31.978949,29.343,41.054,1031.786,152.396246,354.985576,346.805061,-14.408737,-10.088902,59.427044,0.132860,-0.043903,0.880233,0.441377,0.053950,-0.240782,go_up
11/12/2017 10:55:38.200798,29.397,40.888,1031.730,148.781464,9.847552,254.927641,-25.324511,-2.478665,60.796406,0.098918,0.063854,1.146837,-0.327702,0.092434,0.123294,go_up
11/12/2017 10:55:38.364123,29.379,40.436,1031.742,150.337573,15.035225,256.033224,-37.178547,5.394336,62.304657,-0.036532,-0.132915,1.255526,-0.545475,0.554859,0.232028,go_up
11/12/2017 10:55:38.530612,29.326,40.636,1031.748,150.125932,21.968725,262.454244,-42.580711,7.771585,62.837624,-0.130576,-0.047763,0.796158,0.263310,0.035319,0.470571,go_up
11/12/2017 10:55:38.700649,29.485,40.363,1031.749,153.092038,27.263566,270.958710,-44.812378,9.718610,62.960358,0.014304,0.073809,0.822233,0.117008,0.211553,0.140398,go_up
11/12/2017 10:55:38.860585,29.379,40.446,1031.754,157.622885,27.026123,278.547474,-46.066692,10.585231,63.205208,0.121708,-0.047280,1.124661,-0.185370,-0.097545,-0.385251,go_up
11/12/2017 10:55:39.027122,29.397,40.755,1031.752,163.213668,20.999073,286.009524,-47.023800,9.707758,63.600681,0.138679,-0.037872,0.850258,-0.089159,0.274167,-0.538273,go_up
11/12/2017 10:55:39.196207,29.343,40.493,1031.760,164.550076,16.087484,294.533299,-47.637680,7.693706,64.381554,0.042428,0.026950,0.745469,0.365019,0.057615,-0.441145,go_up
11/12/2017 10:55:39.362698,29.414,40.370,1031.761,166.139161,13.926132,301.855412,-47.794529,7.047413,64.623993,0.020608,-0.025811,1.080552,0.146024,0.025545,0.045714,go_up
11/12/2017 10:55:39.529191,29.308,40.131,1031.752,169.247388,16.385117,302.632913,-48.390621,6.726970,64.250595,-0.056032,-0.121095,1.033762,-0.229963,-0.147636,0.418342,go_up
11/12/2017 10:55:39.699305,29.450,40.440,1031.736,174.613007,19.587529,308.144787,-48.856098,6.731095,64.451370,-0.001728,0.016753,0.783242,0.189396,-0.263089,0.470265,go_up
11/12/2017 10:55:39.865695,29.379,40.334,1031.727,178.722896,19.884588,315.211458,-48.505737,8.312064,65.139259,0.100373,0.088376,0.863174,0.054700,0.011800,0.235082,go_up
11/12/2017 10:55:40.028640,29.361,40.187,1031.713,180.742874,16.418424,318.321923,-47.735435,9.850016,66.006477,0.164863,-0.025811,1.102728,-0.220190,-0.208417,-0.245058,go_up
11/12/2017 10:55:40.188134,29.414,40.430,1031.719,179.877471,11.710382,323.232737,-47.185394,9.643198,66.991676,0.175046,0.029863,0.811267,0.099598,0.096711,-0.420376,go_up
11/12/2017 10:55:40.347480,29.237,40.606,1031.710,177.227781,8.913398,327.352246,-46.796524,8.933002,68.133575,0.036852,0.012868,0.765939,0.061114,0.207888,-0.235895,go_up
11/12/2017 10:55:40.513901,29.308,40.250,1031.701,177.359891,8.799172,329.094593,-46.988979,9.148694,69.479111,0.039276,-0.010131,1.087375,0.032406,0.087235,0.123593,go_up
11/12/2017 10:55:40.682919,29.379,40.021,1031.694,181.125856,10.581466,328.955021,-47.203945,10.004031,70.425629,-0.005924,-0.105657,1.118081,-0.342971,0.255223,0.599762,go_up
11/12/2017 10:55:40.849582,29.521,40.071,1031.689,186.624199,14.711729,334.640612,-47.114010,11.138403,70.586472,-0.021722,0.058756,0.721099,0.214749,0.016680,0.597930,go_up
11/12/2017 10:55:41.016169,29.343,40.566,1031.678,189.810387,15.398771,338.960902,-46.624828,13.867394,71.099152,0.092614,0.076965,0.915082,-0.139553,0.030119,0.241795,go_up
11/12/2017 10:55:41.179094,29.397,39.895,1031.673,189.557889,14.064381,339.594335,-45.733292,15.155924,72.151703,0.136497,-0.032807,1.025233,-0.227212,-0.047766,-0.216048,go_up
11/12/2017 10:55:41.346464,29.414,39.453,1031.665,185.728980,12.134365,340.915717,-44.418648,15.105176,73.182014,0.150074,-0.045109,0.854645,0.106015,0.026148,-0.542556,go_up
11/12/2017 10:55:41.513186,29.432,40.307,1031.657,182.370658,9.353315,341.848149,-44.112881,14.884368,73.641655,0.086068,0.044431,0.794695,0.121897,-0.025775,-0.368459,go_up
11/12/2017 10:55:41.680061,29.255,40.114,1031.646,181.691792,8.464630,344.083600,-44.542046,14.970253,73.967583,0.021820,0.009954,1.134165,0.025381,0.086624,0.098853,go_up
11/12/2017 10:55:41.850186,29.237,40.061,1031.633,184.240641,10.925898,340.702668,-45.331306,15.132013,74.114380,-0.060475,-0.062719,0.908014,0.049815,0.065549,0.359692,go_up
11/12/2017 10:55:42.016932,29.237,40.513,1031.629,189.707620,11.377049,346.958978,-45.731426,15.095832,74.086540,0.021335,-0.013509,0.761796,0.130755,-0.257904,0.589988,go_up
11/12/2017 10:55:42.182694,29.237,40.194,1031.616,193.781787,10.713929,349.694525,-44.448238,16.839777,74.030052,0.064733,0.118240,0.771788,-0.165820,0.065549,0.350529,go_up
11/12/2017 10:55:42.352916,29.272,40.294,1031.603,194.889329,9.021690,350.041615,-42.656559,18.667440,74.414261,0.128011,-0.007478,1.099316,-0.130041,-0.187312,-0.143638,go_up
11/12/2017 10:55:50.522598,29.397,41.370,1031.563,205.758209,355.180932,334.357925,-28.704344,12.040095,73.905434,0.043883,0.041518,0.951392,-0.042064,-0.158275,0.003882,standing
11/12/2017 10:55:50.690284,29.343,40.144,1031.558,204.903479,354.748757,336.227648,-13.931820,4.438679,72.913948,0.052611,0.046131,0.951636,-0.003267,-0.054108,0.012734,standing
11/12/2017 10:55:50.856583,29.397,40.755,1031.564,203.006941,354.254970,338.149523,-7.893580,1.169936,72.328629,0.054793,0.045159,0.950418,-0.033802,-0.005231,0.002960,standing
11/12/2017 10:55:51.022820,29.521,40.905,1031.564,200.253500,353.813530,340.150019,-5.579500,0.055441,72.410965,0.064491,0.037633,0.941401,0.023308,0.022864,-0.003760,standing
11/12/2017 10:55:51.187879,29.361,39.111,1031.565,197.265757,353.574437,341.772150,-4.528337,-0.136534,72.132477,0.051641,0.047102,0.951636,0.002235,0.009727,-0.008340,standing
